PacketCounter	SampleTimeFine	Acc_X	Acc_Y	Acc_Z	Gyr_X	Gyr_Y	Gyr_Z	Roll	Pitch	Yaw	Latitude	Longitude	Altitude
18349	21398974	9.087963	-1.154606	3.017735	-0.074461	-0.042018	0.034930	-28.841803	-71.166591	-60.438224	39.979033908	116.338898485	49.278508
18350	21398999	9.075419	-1.174056	3.057593	-0.084759	-0.034776	0.031325	-28.872325	-71.169598	-60.418860	39.979033911	116.338898493	49.278325
18351	21399024	9.072634	-1.190572	3.065482	-0.089981	-0.042558	0.035751	-28.906810	-71.173271	-60.396098	39.979033915	116.338898501	49.278141
18352	21399049	9.068428	-1.198894	3.085428	-0.098857	-0.042678	0.035304	-28.942438	-71.176986	-60.373473	39.979033919	116.338898509	49.277956
18353	21399074	9.046369	-1.208558	3.085370	-0.113203	-0.045902	0.034876	-28.980631	-71.181129	-60.350308	39.979033922	116.338898517	49.280107
18354	21399099	9.068324	-1.219662	3.118598	-0.118612	-0.047188	0.037162	-29.020716	-71.185270	-60.325966	39.979033926	116.338898525	49.279922
18355	21399124	9.065533	-1.230700	3.125196	-0.117546	-0.045106	0.032708	-29.058599	-71.189455	-60.303788	39.979033929	116.338898533	49.279736
18356	21399149	9.069596	-1.262382	3.138387	-0.120465	-0.054759	0.035331	-29.099851	-71.194660	-60.278494	39.979033933	116.338898541	49.279550
18357	21399174	9.043357	-1.273466	3.155647	-0.121602	-0.056323	0.032492	-29.140562	-71.200253	-60.253944	39.979033937	116.338898549	49.279362
18358	21399199	9.074980	-1.324391	3.152827	-0.116764	-0.062509	0.030340	-29.181077	-71.206765	-60.228870	39.979033941	116.338898558	49.279174
18359	21399224	9.052919	-1.333974	3.152778	-0.115506	-0.061275	0.024378	-29.218989	-71.213533	-60.206356	39.979033944	116.338898566	49.278985
18360	21399249	9.080398	-1.357485	3.164693	-0.105675	-0.064904	0.032064	-29.259086	-71.220212	-60.180048	39.979033948	116.338898574	49.278795
18361	21399274	9.099703	-1.368463	3.156691	-0.106131	-0.059536	0.026590	-29.296155	-71.226598	-60.157011	39.979033952	116.338898582	49.273884
18362	21399299	9.113450	-1.393186	3.155307	-0.095794	-0.063497	0.033715	-29.335197	-71.232974	-60.130323	39.979033956	116.338898590	49.273688
18363	21399324	9.095618	-1.383460	3.126069	-0.090823	-0.060487	0.028093	-29.370861	-71.239364	-60.106453	39.979033959	116.338898598	49.273491
18364	21399349	9.113437	-1.406964	3.151250	-0.085539	-0.064732	0.036560	-29.409779	-71.245683	-60.078348	39.979033963	116.338898607	49.273295
18365	21399374	9.079009	-1.419275	3.135238	-0.082649	-0.062360	0.030673	-29.445650	-71.252115	-60.053025	39.979033967	116.338898615	49.273097
18366	21399399	9.102418	-1.424769	3.133919	-0.076352	-0.063311	0.031100	-29.480994	-71.258630	-60.027307	39.979033971	116.338898623	49.272899
18367	21399424	9.090114	-1.393042	3.115387	-0.073257	-0.059478	0.037155	-29.517343	-71.264235	-60.000060	39.979033975	116.338898631	49.272700
18368	21399449	9.101071	-1.413751	3.131276	-0.066330	-0.060965	0.035891	-29.552563	-71.270110	-59.972957	39.979033979	116.338898639	49.272501
18369	21399474	9.099601	-1.449619	3.149776	-0.064848	-0.062692	0.035024	-29.587633	-71.276255	-59.945792	39.979033983	116.338898648	49.271276
18370	21399499	9.113343	-1.455157	3.164382	-0.062086	-0.068979	0.034361	-29.623397	-71.283225	-59.917476	39.979033987	116.338898656	49.271075
18371	21399524	9.094108	-1.405638	3.171184	-0.058341	-0.072592	0.034706	-29.659531	-71.290614	-59.888204	39.979033991	116.338898664	49.270873
18372	21399549	9.131296	-1.405674	3.172545	-0.063987	-0.074364	0.038311	-29.698196	-71.297962	-59.857116	39.979033995	116.338898672	49.270671
18373	21399574	9.114760	-1.379564	3.188581	-0.066860	-0.074072	0.036463	-29.736559	-71.305399	-59.826781	39.979033999	116.338898681	49.270469
18374	21399599	9.118921	-1.390556	3.175217	-0.063770	-0.082318	0.040329	-29.777661	-71.313579	-59.793090	39.979034003	116.338898689	49.270267
18375	21399624	9.101088	-1.345094	3.171401	-0.071691	-0.090641	0.046432	-29.823928	-71.322351	-59.755146	39.979034007	116.338898697	49.270064
18376	21399649	9.110845	-1.301004	3.151610	-0.069472	-0.091426	0.045192	-29.869626	-71.331299	-59.717468	39.979034012	116.338898706	49.269860
18377	21399674	9.125889	-1.335491	3.175428	-0.070941	-0.091787	0.050148	-29.917471	-71.339929	-59.677746	39.979034016	116.338898714	49.274602
18378	21399699	9.131403	-1.343749	3.171414	-0.080226	-0.094712	0.048755	-29.966795	-71.349010	-59.637872	39.979034020	116.338898722	49.274403
18379	21399724	9.157715	-1.296873	3.143647	-0.085597	-0.103249	0.049351	-30.018964	-71.359096	-59.595809	39.979034024	116.338898731	49.274204
18380	21399749	9.154998	-1.270709	3.138443	-0.087330	-0.101788	0.049524	-30.071185	-71.368977	-59.553956	39.979034029	116.338898739	49.274004
18381	21399774	9.200512	-1.261050	3.131835	-0.085163	-0.111279	0.054517	-30.127005	-71.379662	-59.507980	39.979034033	116.338898747	49.273804
18382	21399799	9.218440	-1.258265	3.130528	-0.091784	-0.115529	0.057736	-30.185923	-71.390627	-59.459737	39.979034037	116.338898756	49.273604
18383	21399824	9.224040	-1.244418	3.098663	-0.089653	-0.110786	0.057119	-30.243356	-71.401035	-59.412744	39.979034042	116.338898764	49.273404
18384	21399849	9.225370	-1.266428	3.109222	-0.090891	-0.114210	0.061074	-30.303213	-71.411564	-59.363382	39.979034046	116.338898773	49.273204
18385	21399874	9.268101	-1.273316	3.099910	-0.090288	-0.115378	0.055173	-30.361127	-71.422649	-59.315984	39.979034050	116.338898781	49.271953
18386	21399899	9.266666	-1.273364	3.117217	-0.088693	-0.118905	0.056635	-30.420174	-71.434049	-59.267151	39.979034055	116.338898790	49.271752
18387	21399924	9.250163	-1.254075	3.119900	-0.087930	-0.123952	0.054257	-30.479394	-71.446228	-59.218024	39.979034059	116.338898798	49.271552
18388	21399949	9.255626	-1.259683	3.131885	-0.087981	-0.124516	0.054570	-30.538929	-71.458437	-59.168576	39.979034064	116.338898807	49.271351
18389	21399974	9.266788	-1.218281	3.106746	-0.084870	-0.126031	0.059311	-30.600163	-71.470472	-59.116869	39.979034068	116.338898815	49.271151
18390	21399999	9.276314	-1.248648	3.131929	-0.081480	-0.127551	0.059526	-30.661395	-71.482661	-59.064657	39.979034073	116.338898824	49.270951
18391	21400024	9.274847	-1.276277	3.155755	-0.081988	-0.129724	0.062479	-30.724334	-71.494883	-59.010724	39.979034077	116.338898833	49.270752
18392	21400049	9.268024	-1.226714	3.151951	-0.079450	-0.135301	0.058606	-30.786784	-71.508057	-58.956928	39.979034082	116.338898841	49.270553
18393	21400074	9.295685	-1.208698	3.122768	-0.076330	-0.134467	0.055300	-30.847469	-71.521353	-58.904526	39.979034086	116.338898850	49.269375
18394	21400099	9.306853	-1.148092	3.103019	-0.065261	-0.134818	0.058091	-30.907753	-71.534469	-58.850879	39.979034091	116.338898859	49.269175
18395	21400124	9.308273	-1.170012	3.076351	-0.056711	-0.135763	0.055270	-30.966062	-71.547891	-58.798027	39.979034096	116.338898867	49.268976
18396	21400149	9.282218	-1.138210	3.037884	-0.050902	-0.131290	0.054243	-31.022251	-71.560823	-58.746537	39.979034100	116.338898876	49.268777
18397	21400174	9.285132	-1.117385	2.988749	-0.047472	-0.122216	0.050993	-31.074812	-71.572866	-58.698357	39.979034105	116.338898885	49.268578
18398	21400199	9.292055	-1.124205	2.970078	-0.044206	-0.117101	0.050135	-31.125518	-71.584331	-58.651643	39.979034110	116.338898894	49.268379
18399	21400224	9.263187	-1.141913	2.926167	-0.044367	-0.105026	0.048362	-31.172962	-71.594435	-58.608392	39.979034114	116.338898903	49.268180
18400	21400249	9.271586	-1.132103	2.886287	-0.036554	-0.098629	0.040755	-31.215107	-71.604309	-58.569551	39.979034119	116.338898912	49.267980
18401	21400274	9.248221	-1.114160	2.869061	-0.038157	-0.085336	0.035639	-31.252668	-71.612927	-58.535783	39.979034124	116.338898920	49.269253
18402	21400299	9.241408	-1.053614	2.875883	-0.040910	-0.068521	0.028564	-31.284285	-71.620005	-58.508696	39.979034129	116.338898929	49.269054
18403	21400324	9.260608	-1.096359	2.883741	-0.042295	-0.060172	0.031376	-31.315289	-71.625847	-58.482467	39.979034134	116.338898938	49.268855
18404	21400349	9.241208	-1.128070	2.912869	-0.049213	-0.050597	0.027165	-31.343601	-71.630827	-58.460118	39.979034138	116.338898948	49.268656
18405	21400374	9.226061	-1.123942	2.910207	-0.060700	-0.042391	0.020218	-31.369170	-71.635318	-58.442393	39.979034143	116.338898957	49.268456
18406	21400399	9.186015	-1.136461	2.936750	-0.077330	-0.033545	0.021207	-31.395507	-71.638651	-58.426369	39.979034148	116.338898966	49.268256
18407	21400424	9.151428	-1.164119	2.976523	-0.089705	-0.031462	0.023809	-31.424115	-71.641532	-58.409822	39.979034153	116.338898975	49.268055
18408	21400449	9.152609	-1.212478	3.029553	-0.101516	-0.033638	0.017494	-31.452586	-71.645149	-58.395201	39.979034158	116.338898984	49.267853
18409	21400474	9.124911	-1.225035	3.076054	-0.118713	-0.033058	0.016853	-31.483161	-71.648740	-58.380957	39.979034163	116.338898993	49.271519
18410	21400499	9.112405	-1.222400	3.119952	-0.119589	-0.038870	0.013836	-31.514071	-71.653265	-58.366494	39.979034168	116.338899002	49.271320
18411	21400524	9.099781	-1.306530	3.160880	-0.120518	-0.045249	0.011255	-31.545617	-71.658759	-58.351502	39.979034172	116.338899012	49.271120
18412	21400549	9.074854	-1.334201	3.198004	-0.130013	-0.050259	0.010304	-31.579320	-71.664933	-58.335671	39.979034177	116.338899021	49.270920
18413	21400574	9.096713	-1.371540	3.252434	-0.133204	-0.061777	0.006959	-31.614875	-71.672761	-58.318371	39.979034183	116.338899030	49.270720
18414	21400599	9.070520	-1.348223	3.267121	-0.142610	-0.071390	0.007647	-31.654236	-71.681706	-58.298482	39.979034188	116.338899040	49.270518
18415	21400624	9.107677	-1.352443	3.284418	-0.150998	-0.081332	0.015317	-31.699912	-71.691281	-58.273208	39.979034193	116.338899049	49.270317
18416	21400649	9.124165	-1.381361	3.292283	-0.161555	-0.091358	0.021647	-31.751753	-71.701594	-58.243034	39.979034198	116.338899058	49.270115
18417	21400674	9.164159	-1.401912	3.264307	-0.167418	-0.106101	0.026642	-31.809687	-71.713316	-58.207330	39.979034203	116.338899068	49.270136
18418	21400699	9.181949	-1.457007	3.284094	-0.181457	-0.115854	0.033830	-31.874573	-71.725670	-58.166424	39.979034208	116.338899077	49.269934
18419	21400724	9.197154	-1.437730	3.274848	-0.185689	-0.127879	0.034499	-31.943143	-71.739420	-58.122281	39.979034214	116.338899086	49.269733
18420	21400749	9.235883	-1.410039	3.231080	-0.193723	-0.133994	0.039783	-32.016302	-71.753495	-58.074520	39.979034219	116.338899096	49.269532
18421	21400774	9.242765	-1.389436	3.244480	-0.193013	-0.141008	0.049160	-32.094527	-71.767690	-58.021322	39.979034224	116.338899105	49.269331
18422	21400799	9.245585	-1.365978	3.229927	-0.183859	-0.149316	0.057533	-32.176549	-71.782230	-57.962750	39.979034229	116.338899115	49.269131
18425	21400824	9.234718	-1.319068	3.195516	-0.178938	-0.152323	0.056256	-32.258206	-71.797207	-57.903826	39.979034235	116.338899124	49.268931
18426	21400849	9.278805	-1.314983	3.202186	-0.163482	-0.157888	0.057957	-32.339686	-71.812701	-57.842763	39.979034240	116.338899134	49.268731
18427	21400874	9.248481	-1.299872	3.212880	-0.150836	-0.156809	0.055477	-32.406477	-71.830049	-57.769107	39.979034344	116.338898250	49.268623
18428	21400899	9.287030	-1.287545	3.234196	-0.142366	-0.165604	0.056811	-32.486553	-71.846515	-57.706350	39.979034350	116.338898259	49.268445
18429	21400924	9.255442	-1.210528	3.237117	-0.136536	-0.166555	0.061379	-32.567829	-71.862716	-57.641457	39.979034355	116.338898268	49.268266
18430	21400949	9.272018	-1.151437	3.255930	-0.130306	-0.163126	0.062244	-32.647851	-71.878408	-57.576951	39.979034361	116.338898277	49.268088
18431	21400974	9.276198	-1.145854	3.241312	-0.123188	-0.167312	0.070724	-32.731092	-71.893920	-57.507990	39.979034366	116.338898286	49.267910
18432	21400999	9.310666	-1.144463	3.232052	-0.112017	-0.167879	0.063525	-32.810344	-71.910028	-57.441549	39.979034372	116.338898296	49.267733
18433	21401024	9.331432	-1.136054	3.198836	-0.117950	-0.163674	0.060333	-32.888396	-71.925850	-57.377270	39.979034378	116.338898305	49.267557
18434	21401049	9.360581	-1.083609	3.148477	-0.123055	-0.161625	0.061235	-32.967145	-71.941328	-57.313033	39.979034383	116.338898314	49.267380
18435	21401074	9.374363	-1.076729	3.149861	-0.131626	-0.154810	0.058585	-33.044635	-71.956167	-57.251419	39.979034389	116.338898324	49.265040
18436	21401099	9.384019	-1.069850	3.153858	-0.146259	-0.149243	0.056581	-33.122256	-71.970468	-57.191874	39.979034395	116.338898333	49.264863
18437	21401124	9.407471	-1.073924	3.137889	-0.143096	-0.149260	0.055915	-33.199290	-71.984799	-57.132476	39.979034401	116.338898343	49.264687
18438	21401149	9.388194	-1.060182	3.137944	-0.150634	-0.147714	0.052714	-33.275958	-71.999171	-57.074602	39.979034407	116.338898352	49.264511
18439	21401174	9.408815	-1.076736	3.147222	-0.156151	-0.140685	0.051783	-33.351475	-72.012751	-57.018774	39.979034412	116.338898362	49.264337
18440	21401199	9.404718	-1.069833	3.133929	-0.167698	-0.133066	0.051686	-33.426856	-72.025405	-56.964832	39.979034418	116.338898371	49.264163
18441	21401224	9.444774	-1.050445	3.107424	-0.173599	-0.129011	0.059180	-33.504946	-72.036961	-56.908936	39.979034424	116.338898381	49.263991
18442	21401249	9.440557	-1.116458	3.101903	-0.175564	-0.123748	0.055203	-33.580650	-72.048179	-56.855846	39.979034430	116.338898391	49.263819
18443	21401274	9.379941	-1.132920	3.089801	-0.168341	-0.116152	0.047456	-33.650683	-72.059085	-56.807632	39.979034436	116.338898400	49.265096
18444	21401299	9.360587	-1.150828	3.101734	-0.159174	-0.114638	0.039861	-33.716305	-72.070397	-56.762678	39.979034442	116.338898410	49.264928
18445	21401324	9.377158	-1.153542	3.088452	-0.161393	-0.110218	0.034435	-33.779228	-72.081598	-56.720898	39.979034448	116.338898420	49.264760
18446	21401349	9.342677	-1.159118	3.096369	-0.164691	-0.099741	0.039676	-33.842032	-72.091120	-56.679742	39.979034454	116.338898430	49.264592
18447	21401374	9.308184	-1.170137	3.106935	-0.172493	-0.094488	0.042500	-33.905749	-72.099778	-56.638803	39.979034460	116.338898440	49.264425
18448	21401399	9.297183	-1.178343	3.094923	-0.177857	-0.090873	0.038306	-33.967845	-72.108328	-56.600376	39.979034467	116.338898449	49.264258
18449	21401424	9.301264	-1.201719	3.096207	-0.171295	-0.086421	0.035776	-34.027012	-72.116540	-56.564042	39.979034473	116.338898459	49.264091
18450	21401449	9.309515	-1.186694	3.117517	-0.173837	-0.080994	0.038141	-34.086105	-72.123906	-56.528169	39.979034479	116.338898469	49.263925
18451	21401474	9.275034	-1.205933	3.116126	-0.177027	-0.079723	0.038177	-34.145392	-72.131107	-56.492577	39.979034485	116.338898479	49.259330
18452	21401499	9.266823	-1.188005	3.104210	-0.178781	-0.075860	0.033824	-34.202401	-72.138190	-56.459641	39.979034492	116.338898489	49.259159
18453	21401524	9.264092	-1.193455	3.097513	-0.175980	-0.070260	0.031516	-34.256795	-72.144785	-56.429033	39.979034498	116.338898500	49.258989
18454	21401549	9.250370	-1.159056	3.090964	-0.172254	-0.072925	0.031735	-34.311434	-72.151670	-56.397607	39.979034504	116.338898510	49.258819
18455	21401574	9.217194	-1.205893	3.102802	-0.174494	-0.065744	0.028819	-34.363552	-72.157931	-56.369169	39.979034511	116.338898520	49.258647
18456	21401599	9.185609	-1.174165	3.084235	-0.165242	-0.063139	0.026125	-34.412727	-72.164095	-56.342429	39.979034517	116.338898530	49.258477
18457	21401624	9.160731	-1.220955	3.088036	-0.165226	-0.062069	0.029831	-34.463018	-72.169826	-56.314518	39.979034523	116.338898540	49.258305
18458	21401649	9.157848	-1.251320	3.114555	-0.170480	-0.059207	0.021991	-34.510485	-72.175847	-56.290363	39.979034530	116.338898551	49.258133
18459	21401674	9.142636	-1.278874	3.121093	-0.174525	-0.053532	0.019881	-34.556348	-72.181363	-56.268503	39.979034537	116.338898561	49.256042
18460	21401699	9.093060	-1.249950	3.129161	-0.174148	-0.052091	0.014979	-34.600013	-72.187103	-56.248896	39.979034543	116.338898571	49.255867
18461	21401724	9.105431	-1.256881	3.131808	-0.174892	-0.059001	0.010832	-34.644034	-72.193990	-56.229027	39.979034550	116.338898582	49.255691
18462	21401749	9.104017	-1.272062	3.141046	-0.179929	-0.059645	0.013684	-34.690011	-72.200716	-56.207862	39.979034556	116.338898592	49.255514
18463	21401774	9.117869	-1.201922	3.155915	-0.176556	-0.063698	0.014217	-34.736756	-72.207871	-56.185384	39.979034563	116.338898602	49.255337
18464	21401799	9.128843	-1.243168	3.146492	-0.165614	-0.069021	0.015000	-34.783603	-72.215582	-56.161154	39.979034570	116.338898613	49.255158
18465	21401824	9.141259	-1.245894	3.138510	-0.161685	-0.070009	0.013024	-34.829445	-72.223566	-56.137389	39.979034577	116.338898623	49.254980
18466	21401849	9.126198	-1.226547	3.115932	-0.157003	-0.071082	0.009795	-34.873737	-72.231933	-56.114550	39.979034583	116.338898634	49.254800
18467	21401874	9.152563	-1.158982	3.074970	-0.156547	-0.073811	0.013508	-34.920056	-72.240312	-56.089516	39.979034590	116.338898645	49.251609
18468	21401899	9.211975	-1.095588	3.051258	-0.147717	-0.075570	0.018993	-34.967604	-72.248441	-56.061862	39.979034597	116.338898655	49.251425
18469	21401924	9.243740	-1.074873	3.034081	-0.131671	-0.071713	0.019556	-35.012103	-72.256064	-56.034997	39.979034604	116.338898666	49.251241
18470	21401949	9.267107	-1.117550	3.033938	-0.135054	-0.076675	0.022048	-35.059307	-72.264058	-56.005803	39.979034611	116.338898677	49.251056
18471	21401974	9.293404	-1.080310	3.006161	-0.132728	-0.076316	0.020683	-35.105619	-72.272115	-55.977197	39.979034618	116.338898687	49.250872
18472	21401999	9.296390	-1.025011	2.947820	-0.130542	-0.075328	0.019257	-35.150873	-72.280167	-55.949373	39.979034625	116.338898698	49.250687
18473	21402024	9.383326	-0.969972	2.934748	-0.141765	-0.071244	0.019860	-35.196934	-72.287684	-55.922392	39.979034632	116.338898709	49.250502
18474	21402049	9.371002	-0.961627	2.908139	-0.145803	-0.070137	0.017439	-35.242430	-72.295265	-55.896612	39.979034639	116.338898720	49.250318
18475	21402074	9.328509	-0.911788	2.839160	-0.148912	-0.067712	0.022437	-35.289604	-72.302142	-55.869538	39.979034646	116.338898731	49.251981
18476	21402099	9.294255	-0.840094	2.800832	-0.163037	-0.055724	0.025955	-35.337006	-72.307321	-55.844350	39.979034653	116.338898742	49.251798
18477	21402124	9.371400	-0.862099	2.796808	-0.169568	-0.044161	0.026838	-35.382682	-72.311069	-55.821957	39.979034660	116.338898753	49.251614
18478	21402149	9.396120	-0.899322	2.811293	-0.188063	-0.042582	0.024995	-35.429936	-72.314780	-55.800688	39.979034668	116.338898764	49.251431
18479	21402174	9.408614	-0.896443	2.779397	-0.202703	-0.039247	0.018279	-35.475974	-72.318655	-55.782897	39.979034675	116.338898775	49.251248
18480	21402199	9.411404	-0.878529	2.772830	-0.216705	-0.024037	0.013004	-35.518132	-72.321190	-55.771285	39.979034682	116.338898787	49.251065
18481	21402224	9.423824	-0.905976	2.752799	-0.226608	-0.017205	0.003432	-35.556429	-72.323724	-55.765212	39.979034689	116.338898798	49.250881
18482	21402249	9.443058	-0.922513	2.762055	-0.241092	-0.011858	0.003693	-35.595505	-72.325612	-55.760501	39.979034696	116.338898809	49.250698
18483	21402274	9.430626	-0.937657	2.764665	-0.243071	0.000325	-0.003621	-35.629007	-72.326690	-55.761937	39.979034704	116.338898821	49.251170
18484	21402299	9.382670	-0.799933	2.738476	-0.226490	0.012703	-0.012483	-35.653654	-72.327067	-55.770173	39.979034711	116.338898832	49.250987
18485	21402324	9.386741	-0.769833	2.777193	-0.210096	0.023629	-0.009599	-35.674144	-72.325933	-55.780308	39.979034718	116.338898844	49.250804
18486	21402349	9.421113	-0.811165	2.786361	-0.203049	0.036618	-0.005467	-35.691727	-72.322943	-55.792435	39.979034725	116.338898856	49.250621
18487	21402374	9.406062	-0.753328	2.778540	-0.192779	0.045182	-0.004013	-35.706124	-72.318837	-55.806362	39.979034733	116.338898867	49.250439
18488	21402399	9.361946	-0.776643	2.770503	-0.174223	0.053310	-0.005138	-35.715322	-72.313880	-55.822957	39.979034740	116.338898879	49.250256
18489	21402424	9.315303	-0.711844	2.722810	-0.165513	0.069343	-0.000933	-35.720607	-72.306708	-55.842350	39.979034747	116.338898891	49.250072
18490	21402449	9.305775	-0.675989	2.705591	-0.168118	0.082310	0.009587	-35.726706	-72.297149	-55.861280	39.979034755	116.338898903	49.249888
18491	21402474	9.313635	-0.820742	2.779625	-0.172070	0.094338	0.008352	-35.729779	-72.286294	-55.883982	39.979034762	116.338898915	49.251573
18492	21402499	9.328475	-0.965404	2.828333	-0.183818	0.104170	0.004041	-35.730407	-72.274658	-55.911020	39.979034770	116.338898927	49.251389
18493	21402524	9.343484	-1.038388	2.841406	-0.210083	0.108992	-0.001824	-35.731419	-72.262951	-55.941605	39.979034777	116.338898939	49.251205
18494	21402549	9.311999	-0.972145	2.792424	-0.214697	0.117111	-0.013740	-35.726661	-72.251297	-55.978945	39.979034784	116.338898951	49.251021
18495	21402574	9.272153	-0.925331	2.769930	-0.226718	0.129125	-0.016423	-35.719544	-72.238468	-56.020573	39.979034792	116.338898964	49.250835
18496	21402599	9.251532	-0.926592	2.751298	-0.236557	0.146490	-0.005203	-35.713414	-72.222681	-56.062648	39.979034799	116.338898976	49.250650
18497	21402624	9.243394	-0.875612	2.732848	-0.235030	0.156784	0.000325	-35.706432	-72.205233	-56.105390	39.979034807	116.338898988	49.250463
18498	21402649	9.278010	-0.827315	2.689143	-0.220416	0.171451	0.003132	-35.694611	-72.185841	-56.151022	39.979034814	116.338899001	49.250276
18499	21402674	9.324731	-0.867322	2.728927	-0.199372	0.185758	0.007871	-35.677838	-72.164386	-56.198692	39.979034822	116.338899013	49.253147
18500	21402699	9.367185	-0.940472	2.791210	-0.185108	0.187247	0.002895	-35.656919	-72.143169	-56.248579	39.979034830	116.338899026	49.252962
18501	21402724	9.423534	-0.958576	2.839058	-0.178953	0.192180	-0.009680	-35.629388	-72.122420	-56.304493	39.979034837	116.338899039	49.252777
18502	21402749	9.425300	-0.860512	2.742256	-0.184603	0.188476	-0.023860	-35.598603	-72.103276	-56.364682	39.979034845	116.338899051	49.252592
18503	21402774	9.373413	-0.751331	2.612295	-0.203884	0.183392	-0.026022	-35.571206	-72.084896	-56.424220	39.979034852	116.338899064	49.252405
18504	21402799	9.314359	-0.751038	2.531131	-0.235491	0.192198	-0.032565	-35.543802	-72.066026	-56.488530	39.979034860	116.338899077	49.252219
18505	21402824	9.317244	-0.738469	2.484622	-0.276849	0.198188	-0.021836	-35.524739	-72.045556	-56.550307	39.979034868	116.338899090	49.252032
18506	21402849	9.278566	-0.760580	2.507149	-0.322636	0.204666	-0.016610	-35.512541	-72.023891	-56.611768	39.979034875	116.338899103	49.251843
18507	21402874	9.282595	-0.803280	2.525616	-0.357443	0.216337	-0.015010	-35.503005	-72.000729	-56.675679	39.979034883	116.338899116	49.252280
18508	21402899	9.327892	-0.833778	2.581407	-0.376889	0.224401	-0.011837	-35.495425	-71.976359	-56.740473	39.979034890	116.338899129	49.252090
18509	21402924	9.329268	-0.844780	2.577354	-0.398372	0.225766	-0.007477	-35.492232	-71.951466	-56.803898	39.979034898	116.338899142	49.251899
18510	21402949	9.308465	-0.925950	2.583758	-0.417933	0.227308	-0.007513	-35.491527	-71.926395	-56.867662	39.979034906	116.338899155	49.251707
18511	21402974	9.365945	-0.941627	2.738011	-0.412205	0.227214	-0.021228	-35.485220	-71.902474	-56.936466	39.979034913	116.338899169	49.251516
18512	21402999	9.267926	-0.961130	2.796372	-0.388029	0.225572	-0.030656	-35.472607	-71.879525	-57.008269	39.979034921	116.338899182	49.251323
18513	21403024	9.177235	-0.863280	2.744809	-0.367637	0.233287	-0.026044	-35.456870	-71.855287	-57.080296	39.979034929	116.338899196	49.251129
18514	21403049	9.138707	-0.820634	2.752901	-0.353462	0.231609	-0.018519	-35.442324	-71.830614	-57.148943	39.979034936	116.338899209	49.250934
18515	21403074	9.154856	-0.999705	2.802842	-0.337508	0.232100	-0.006075	-35.429903	-71.804845	-57.212956	39.979034944	116.338899223	49.251391
18516	21403099	9.078681	-1.187001	2.847411	-0.332971	0.224827	-0.008425	-35.417942	-71.780116	-57.275811	39.979034952	116.338899236	49.251194
18517	21403124	9.041536	-1.223982	2.800698	-0.348680	0.214465	-0.011432	-35.409875	-71.756843	-57.336946	39.979034959	116.338899250	49.250994
18518	21403149	9.001636	-1.250005	2.764653	-0.364716	0.206761	-0.010736	-35.406374	-71.734409	-57.395698	39.979034967	116.338899264	49.250793
18519	21403174	8.962881	-1.331224	2.780380	-0.384855	0.202003	-0.016488	-35.404995	-71.713008	-57.455260	39.979034975	116.338899277	49.250589
18520	21403199	8.942045	-1.423456	2.802651	-0.394139	0.193775	-0.020391	-35.405701	-71.692891	-57.514034	39.979034983	116.338899291	49.250384
18521	21403224	8.891169	-1.383475	2.776141	-0.402498	0.186023	-0.034152	-35.404758	-71.674820	-57.575815	39.979034991	116.338899305	49.250177
18522	21403249	8.892797	-1.223828	2.770015	-0.405858	0.179918	-0.031845	-35.406698	-71.657272	-57.635070	39.979034998	116.338899319	49.249967
18523	21403274	8.863807	-1.251357	2.768610	-0.390294	0.167361	-0.031024	-35.409893	-71.641122	-57.690662	39.979035006	116.338899332	49.248028
18525	21403299	8.785182	-1.358558	2.738952	-0.380491	0.164077	-0.025105	-35.414631	-71.624865	-57.743152	39.979035014	116.338899346	49.247810
18527	21403324	8.738170	-1.508464	2.719804	-0.373557	0.160177	-0.022224	-35.420405	-71.608826	-57.793508	39.979035022	116.338899360	49.247589
18528	21403349	8.751816	-1.571766	2.730248	-0.367117	0.159918	-0.025944	-35.424056	-71.593128	-57.845135	39.979035030	116.338899374	49.247365
18529	21403374	8.704750	-1.691582	2.749749	-0.355005	0.156242	-0.033011	-35.387990	-71.579152	-57.891182	39.979034494	116.338897659	49.260275
18530	21403399	8.759973	-1.644767	2.739302	-0.340854	0.153565	-0.036852	-35.385747	-71.565090	-57.945063	39.979034502	116.338897672	49.260100
18531	21403424	8.759746	-1.749461	2.768197	-0.332575	0.147732	-0.044197	-35.381240	-71.552318	-58.000085	39.979034509	116.338897685	49.259921
18532	21403449	8.785905	-1.760478	2.770839	-0.323002	0.141610	-0.042042	-35.377678	-71.540081	-58.052670	39.979034517	116.338897698	49.259740
18533	21403474	8.819008	-1.801623	2.732167	-0.310807	0.136200	-0.042632	-35.373542	-71.528524	-58.104020	39.979034525	116.338897711	49.264274
18534	21403499	8.809388	-1.802973	2.718870	-0.299451	0.134759	-0.044426	-35.367546	-71.517282	-58.155622	39.979034532	116.338897724	49.264092
18535	21403524	8.809234	-1.875960	2.738585	-0.293228	0.132985	-0.039791	-35.362754	-71.505861	-58.205018	39.979034540	116.338897737	49.263908
18536	21403549	8.715287	-2.043835	2.741942	-0.287846	0.127460	-0.043707	-35.357224	-71.495409	-58.254381	39.979034547	116.338897750	49.263721
18537	21403574	8.746838	-2.116818	2.752363	-0.280812	0.128439	-0.049558	-35.348435	-71.485326	-58.306122	39.979034555	116.338897762	49.263531
18538	21403599	8.746623	-2.254448	2.762565	-0.273333	0.123574	-0.051633	-35.339087	-71.475980	-58.357326	39.979034563	116.338897775	49.263339
18539	21403624	8.760176	-2.398994	2.766067	-0.267030	0.119919	-0.069931	-35.323389	-71.468574	-58.414278	39.979034570	116.338897788	49.263145
18540	21403649	8.760116	-2.474585	2.749829	-0.276017	0.115353	-0.090735	-35.302879	-71.463418	-58.477664	39.979034578	116.338897801	49.262948
18541	21403674	8.759965	-2.548957	2.758920	-0.284942	0.116667	-0.100611	-35.279902	-71.458919	-58.545001	39.979034586	116.338897813	49.265138
18542	21403699	8.828749	-2.656263	2.747951	-0.298829	0.111924	-0.109260	-35.257089	-71.455680	-58.614267	39.979034594	116.338897826	49.264940
18543	21403724	8.874196	-2.652202	2.763943	-0.306903	0.110339	-0.122139	-35.231345	-71.453683	-58.687844	39.979034601	116.338897839	49.264741
18544	21403749	8.881105	-2.594487	2.782788	-0.303200	0.107029	-0.118776	-35.207070	-71.451785	-58.759314	39.979034609	116.338897851	49.264541
18545	21403774	8.967888	-2.530038	2.838884	-0.294319	0.101490	-0.108074	-35.186629	-71.449642	-58.825399	39.979034617	116.338897864	49.264341
18546	21403799	9.040781	-2.524757	2.897471	-0.279512	0.091743	-0.102229	-35.168511	-71.448151	-58.886796	39.979034625	116.338897876	49.264140
18547	21403824	9.071073	-2.538535	2.897448	-0.258966	0.079910	-0.103502	-35.149918	-71.448145	-58.945591	39.979034633	116.338897888	49.263938
18548	21403849	9.075198	-2.513828	2.916129	-0.237148	0.066888	-0.099672	-35.132734	-71.449343	-58.999602	39.979034641	116.338897901	49.263737
18549	21403874	9.079129	-2.533324	2.989241	-0.207342	0.051738	-0.093332	-35.117209	-71.451788	-59.047361	39.979034648	116.338897913	49.261392
18550	21403899	9.113602	-2.511357	2.990646	-0.174302	0.041787	-0.090797	-35.100271	-71.455186	-59.091618	39.979034656	116.338897925	49.261189
18551	21403924	9.144065	-2.406803	2.993669	-0.142755	0.022061	-0.089775	-35.083999	-71.460807	-59.130402	39.979034664	116.338897937	49.260987
18552	21403949	9.164807	-2.406705	2.965721	-0.125074	0.006007	-0.085726	-35.070535	-71.467974	-59.163554	39.979034672	116.338897949	49.260786
18553	21403974	9.185568	-2.376329	2.948592	-0.119068	-0.014034	-0.090186	-35.059550	-71.477856	-59.193182	39.979034680	116.338897961	49.260585
18554	21403999	9.181662	-2.214015	2.950427	-0.119443	-0.024404	-0.088733	-35.051654	-71.488832	-59.219608	39.979034688	116.338897973	49.260385
18555	21404024	9.168109	-2.021415	2.968350	-0.116263	-0.043242	-0.081280	-35.050524	-71.501403	-59.238416	39.979034697	116.338897985	49.260185
18556	21404049	9.183447	-1.918152	2.959395	-0.110216	-0.059485	-0.074178	-35.055002	-71.515295	-59.250397	39.979034705	116.338897997	49.259985
18557	21404074	9.164223	-1.864538	2.966200	-0.106490	-0.073183	-0.066470	-35.065017	-71.530160	-59.255972	39.979034713	116.338898009	49.263394
18558	21404099	9.158663	-1.813775	3.012936	-0.102980	-0.093240	-0.059952	-35.081770	-71.546839	-59.253916	39.979034721	116.338898021	49.263198
18559	21404124	9.121463	-1.746480	3.053009	-0.103387	-0.114113	-0.053091	-35.106167	-71.565400	-59.243865	39.979034729	116.338898033	49.263002
18560	21404149	9.109067	-1.686058	3.087773	-0.106604	-0.134015	-0.053664	-35.135783	-71.586338	-59.228798	39.979034737	116.338898045	49.262805
18561	21404174	9.126764	-1.722113	3.151500	-0.110501	-0.166231	-0.047259	-35.176257	-71.610518	-59.202880	39.979034746	116.338898057	49.262608
18562	21404199	9.095195	-1.665609	3.137034	-0.126174	-0.181387	-0.048879	-35.222263	-71.636599	-59.173501	39.979034754	116.338898069	49.262411
18563	21404224	9.062277	-1.595356	3.114647	-0.140995	-0.207239	-0.045648	-35.278089	-71.665429	-59.136017	39.979034762	116.338898081	49.262214
18564	21404249	9.019538	-1.614585	3.107929	-0.163086	-0.227214	-0.035942	-35.345657	-71.695778	-59.089505	39.979034771	116.338898093	49.262015
18565	21404274	8.983549	-1.665621	3.142323	-0.187925	-0.241046	-0.038765	-35.419448	-71.727958	-59.040189	39.979034779	116.338898105	49.267646
18566	21404299	8.967032	-1.660108	3.142283	-0.213768	-0.265940	-0.039954	-35.503021	-71.763119	-58.984485	39.979034787	116.338898117	49.267451
18567	21404324	8.954716	-1.580388	3.158535	-0.229847	-0.286266	-0.040063	-35.594278	-71.800633	-58.923129	39.979034796	116.338898129	49.267256
18568	21404349	8.943625	-1.616133	3.163721	-0.237480	-0.300342	-0.040805	-35.690260	-71.839815	-58.857962	39.979034804	116.338898141	49.267059
18569	21404374	8.915876	-1.720769	3.179322	-0.243607	-0.325936	-0.036561	-35.795521	-71.881582	-58.783970	39.979034813	116.338898153	49.266860
18570	21404399	8.873144	-1.759236	3.157919	-0.248984	-0.340913	-0.042060	-35.903860	-71.925506	-58.707569	39.979034821	116.338898165	49.266660
18571	21404424	8.857924	-1.771636	3.173806	-0.249381	-0.354324	-0.048399	-36.013912	-71.971472	-58.629445	39.979034830	116.338898177	49.266459
18572	21404449	8.824880	-1.801801	3.151066	-0.245249	-0.365453	-0.054136	-36.124694	-72.019165	-58.549951	39.979034839	116.338898189	49.266256
18573	21404474	8.808329	-1.836148	3.131026	-0.232661	-0.375468	-0.068989	-36.231486	-72.069224	-58.472778	39.979034848	116.338898201	49.268369
18574	21404499	8.797204	-1.926948	3.120068	-0.222990	-0.383483	-0.066021	-36.340569	-72.119913	-58.391764	39.979034856	116.338898213	49.268164
18575	21404524	8.776617	-1.904785	3.097573	-0.212692	-0.384489	-0.072475	-36.446663	-72.171219	-58.312365	39.979034865	116.338898225	49.267958
18576	21404549	8.742030	-2.003885	3.094536	-0.191091	-0.383890	-0.080726	-36.547067	-72.223115	-58.235714	39.979034874	116.338898237	49.267749
18577	21404574	8.713016	-2.041048	3.105020	-0.182414	-0.388046	-0.090207	-36.644441	-72.276258	-58.160963	39.979034883	116.338898249	49.267538
18578	21404599	8.661769	-2.182862	3.121829	-0.165321	-0.386132	-0.103968	-36.734401	-72.330321	-58.091446	39.979034892	116.338898261	49.267324
18579	21404624	8.580474	-2.203456	3.111073	-0.155523	-0.378849	-0.115083	-36.817458	-72.384471	-58.027721	39.979034901	116.338898273	49.267108
18580	21404649	8.522619	-2.240471	3.075009	-0.141795	-0.366193	-0.123034	-36.892677	-72.437826	-57.970175	39.979034910	116.338898285	49.266889
18581	21404674	8.481209	-2.299605	3.069502	-0.130016	-0.356074	-0.127101	-36.962367	-72.490350	-57.916671	39.979034919	116.338898297	49.271250
18582	21404699	8.430197	-2.331202	3.062679	-0.124884	-0.342028	-0.135998	-37.024604	-72.542016	-57.870230	39.979034928	116.338898309	49.271029
18583	21404724	8.373724	-2.299573	3.070759	-0.109836	-0.328104	-0.143750	-37.078340	-72.592745	-57.830451	39.979034937	116.338898321	49.270804
18584	21404749	8.333598	-2.345143	3.106481	-0.103270	-0.314799	-0.143397	-37.127855	-72.641912	-57.794122	39.979034947	116.338898333	49.270574
18585	21404774	8.314210	-2.404330	3.107656	-0.091492	-0.300357	-0.138856	-37.173574	-72.689029	-57.760012	39.979034956	116.338898344	49.270339
18586	21404799	8.271386	-2.515701	3.092576	-0.089608	-0.281701	-0.140996	-37.213253	-72.734195	-57.731952	39.979034966	116.338898356	49.270101
18587	21404824	8.213500	-2.497873	3.105913	-0.086094	-0.265436	-0.150096	-37.244709	-72.778289	-57.711983	39.979034975	116.338898367	49.269858
18588	21404849	8.203719	-2.514510	3.149753	-0.076127	-0.253437	-0.148016	-37.272266	-72.820832	-57.694606	39.979034985	116.338898379	49.269610
18589	21404874	8.197923	-2.593221	3.215993	-0.062278	-0.241415	-0.144149	-37.295992	-72.861667	-57.679165	39.979034994	116.338898390	49.270451
18590	21404899	8.211410	-2.703529	3.271470	-0.048877	-0.236727	-0.147314	-37.315394	-72.902241	-57.666244	39.979035004	116.338898402	49.270195
18591	21404924	8.241532	-2.786228	3.304453	-0.054790	-0.223754	-0.153090	-37.329905	-72.941837	-57.659329	39.979035014	116.338898413	49.269935
18592	21404949	8.220888	-2.762865	3.311136	-0.059426	-0.223435	-0.153378	-37.344931	-72.981422	-57.652570	39.979035023	116.338898424	49.269670
18593	21404974	8.196036	-2.718989	3.349849	-0.069317	-0.226329	-0.144911	-37.365407	-73.020600	-57.641596	39.979035033	116.338898435	49.269402
18594	21404999	8.213674	-2.856701	3.383987	-0.083721	-0.226466	-0.138485	-37.390459	-73.059233	-57.627997	39.979035043	116.338898446	49.269129
18595	21405024	8.241087	-2.921476	3.398417	-0.099210	-0.230019	-0.132132	-37.421216	-73.097716	-57.610757	39.979035053	116.338898457	49.268852
18596	21405049	8.279612	-2.951786	3.410321	-0.110275	-0.236037	-0.133280	-37.454966	-73.136981	-57.592049	39.979035063	116.338898468	49.268571
18597	21405074	8.264339	-3.002734	3.427414	-0.120410	-0.238040	-0.128332	-37.492729	-73.176038	-57.570671	39.979035074	116.338898479	49.264831
18598	21405099	8.284916	-3.037267	3.449887	-0.125284	-0.247657	-0.131755	-37.532818	-73.216483	-57.547595	39.979035084	116.338898490	49.264540
18599	21405124	8.312370	-3.064843	3.475121	-0.132857	-0.261028	-0.124261	-37.580852	-73.257786	-57.517358	39.979035094	116.338898500	49.264245
18600	21405149	8.354968	-3.128226	3.480242	-0.144912	-0.271270	-0.115614	-37.637060	-73.299488	-57.480397	39.979035105	116.338898511	49.263947
18601	21405174	8.399033	-3.163985	3.473518	-0.150660	-0.283024	-0.106280	-37.701299	-73.341694	-57.435919	39.979035115	116.338898521	49.263649
18602	21405199	8.480351	-3.227110	3.429461	-0.152485	-0.290543	-0.097048	-37.771785	-73.383927	-57.385205	39.979035126	116.338898531	49.263346
18603	21405224	8.546565	-3.242126	3.390880	-0.150785	-0.297524	-0.089733	-37.847173	-73.426290	-57.329131	39.979035137	116.338898542	49.263041
18604	21405249	8.645668	-3.279375	3.418754	-0.145894	-0.302243	-0.083716	-37.925884	-73.468636	-57.268874	39.979035148	116.338898552	49.262736
18605	21405274	8.728442	-3.258684	3.390917	-0.137459	-0.312816	-0.074525	-38.010392	-73.511341	-57.201324	39.979035158	116.338898562	49.260274
18606	21405299	8.824907	-3.272409	3.382979	-0.138357	-0.317435	-0.070314	-38.098411	-73.554166	-57.130261	39.979035169	116.338898571	49.259965
18607	21405324	8.931154	-3.233760	3.344611	-0.122640	-0.318337	-0.058304	-38.189451	-73.595998	-57.053716	39.979035180	116.338898581	49.259656
18608	21405349	9.018033	-3.188356	3.346138	-0.100914	-0.321373	-0.052661	-38.280878	-73.637638	-56.973541	39.979035192	116.338898591	49.259347
18609	21405374	9.107621	-3.203447	3.326194	-0.077283	-0.323749	-0.044927	-38.373037	-73.678821	-56.889093	39.979035203	116.338898600	49.259043
18610	21405399	9.215261	-3.179901	3.273135	-0.054422	-0.327456	-0.033428	-38.467907	-73.719358	-56.798425	39.979035214	116.338898610	49.258737
18611	21405424	9.248408	-3.130325	3.275970	-0.040430	-0.329435	-0.033247	-38.561906	-73.760058	-56.706596	39.979035225	116.338898619	49.258434
18612	21405449	9.377834	-3.094846	3.338664	-0.014599	-0.331348	-0.020468	-38.658173	-73.799788	-56.608571	39.979035237	116.338898628	49.258133
18613	21405474	9.456446	-3.074130	3.330797	0.007540	-0.342314	-0.018835	-38.755761	-73.840550	-56.505889	39.979035248	116.338898637	49.256954
18614	21405499	9.526778	-3.032889	3.325659	0.034966	-0.348051	-0.019112	-38.851597	-73.881930	-56.400962	39.979035260	116.338898646	49.256659
18615	21405524	9.595937	-2.908950	3.296850	0.059220	-0.357081	-0.011492	-38.950234	-73.923581	-56.289526	39.979035271	116.338898655	49.256368
18616	21405549	9.613941	-2.823687	3.309117	0.070995	-0.360301	-0.005744	-39.050960	-73.965019	-56.174184	39.979035283	116.338898664	49.256080
18617	21405574	9.678750	-2.778309	3.321273	0.089695	-0.368096	-0.000308	-39.154125	-74.006775	-56.053541	39.979035295	116.338898673	49.255798
18618	21405599	9.729850	-2.697123	3.322903	0.102583	-0.370780	0.002807	-39.258086	-74.048487	-55.930177	39.979035307	116.338898682	49.255519
18619	21405624	9.723109	-2.545874	3.349998	0.112750	-0.379564	0.009307	-39.366505	-74.090520	-55.800686	39.979035319	116.338898691	49.255245
18620	21405649	9.718977	-2.506052	3.374051	0.130047	-0.389351	0.017118	-39.479244	-74.132856	-55.664155	39.979035331	116.338898699	49.254975
18621	21405674	9.692845	-2.441452	3.394196	0.148112	-0.400151	0.016828	-39.593417	-74.176337	-55.523467	39.979035343	116.338898708	49.263150
18622	21405699	9.705213	-2.407164	3.424892	0.156389	-0.407052	0.014009	-39.708242	-74.220761	-55.380906	39.979035355	116.338898717	49.262897
18623	21405724	9.712116	-2.337091	3.465051	0.167099	-0.413395	0.014414	-39.824478	-74.265768	-55.235316	39.979035367	116.338898725	49.262649
18624	21405749	9.673626	-2.236717	3.483984	0.181349	-0.420281	0.013085	-39.941153	-74.311573	-55.087182	39.979035379	116.338898734	49.262405
18625	21405774	9.676375	-2.170829	3.522748	0.188857	-0.425757	0.011954	-40.058883	-74.358001	-54.936870	39.979035391	116.338898742	49.262164
18628	21405799	9.628010	-2.177918	3.578563	0.191201	-0.438902	0.014685	-40.182495	-74.405531	-54.780135	39.979035404	116.338898751	49.261927
18629	21405824	9.581113	-2.154626	3.610538	0.201397	-0.444147	0.016840	-40.308091	-74.453343	-54.619862	39.979035416	116.338898759	49.261694
18630	21405849	9.512184	-2.134066	3.637141	0.207672	-0.452748	0.006711	-40.432565	-74.502939	-54.459858	39.979035429	116.338898768	49.261464
18631	21405874	9.465227	-2.132833	3.675716	0.214013	-0.458463	0.002553	-40.529799	-74.547643	-54.344123	39.979034551	116.338898176	49.274186
18632	21405899	9.371455	-2.113696	3.712955	0.217415	-0.461540	0.000882	-40.655241	-74.598572	-54.181741	39.979034563	116.338898184	49.274016
18633	21405924	9.294135	-2.135918	3.764685	0.204568	-0.466597	0.001159	-40.785310	-74.649929	-54.016507	39.979034575	116.338898192	49.273848
18634	21405949	9.220987	-2.148421	3.801833	0.192092	-0.472653	-0.001761	-40.919079	-74.702114	-53.849332	39.979034587	116.338898200	49.273682
18635	21405974	9.146591	-2.178585	3.773794	0.170364	-0.470997	-0.002693	-41.056050	-74.754103	-53.682105	39.979034600	116.338898208	49.273514
18636	21405999	9.059668	-2.191096	3.814916	0.142927	-0.471114	-0.008254	-41.195826	-74.806522	-53.516085	39.979034612	116.338898216	49.273350
18637	21406024	8.992243	-2.211505	3.761640	0.118504	-0.468595	-0.010842	-41.338251	-74.858807	-53.350987	39.979034625	116.338898225	49.273185
18638	21406049	8.968966	-2.167350	3.715240	0.092332	-0.449893	-0.008550	-41.479821	-74.908759	-53.190698	39.979034637	116.338898233	49.273021
18639	21406074	8.951889	-2.343952	3.844930	0.059374	-0.443745	0.004686	-41.630208	-74.956687	-53.026198	39.979034650	116.338898241	49.280580
18640	21406099	8.809948	-2.496335	3.764529	0.012074	-0.437997	-0.003801	-41.782952	-75.004696	-52.866315	39.979034663	116.338898248	49.280422
18641	21406124	8.749525	-2.478140	3.682154	-0.016858	-0.430764	-0.013146	-41.934522	-75.052716	-52.711973	39.979034676	116.338898256	49.280263
18642	21406149	9.327967	-2.524083	3.799318	-0.047296	-0.445916	-0.014283	-42.096452	-75.102349	-52.551457	39.979034689	116.338898264	49.280105
18643	21406174	9.424680	-2.083755	3.391177	-0.059962	-0.488198	0.003754	-42.283848	-75.154607	-52.366507	39.979034703	116.338898272	49.279955
18644	21406199	8.758667	-1.880356	3.089706	-0.055461	-0.464676	0.139596	-42.517579	-75.191083	-52.132997	39.979034716	116.338898280	49.279799
18645	21406224	8.695212	-2.674673	3.206847	-0.045170	-0.396498	0.303945	-42.791318	-75.204159	-51.856608	39.979034729	116.338898288	49.279640
18646	21406249	9.131735	-3.429657	3.466531	-0.038537	-0.337777	0.376990	-43.071774	-75.203609	-51.572297	39.979034743	116.338898295	49.279481
18647	21406274	9.147730	-3.651535	3.550861	-0.004086	-0.312348	0.384598	-43.340800	-75.199310	-51.294698	39.979034757	116.338898302	49.281373
18648	21406299	8.804107	-3.394704	3.333455	0.031483	-0.279732	0.383325	-43.591881	-75.191424	-51.030386	39.979034770	116.338898310	49.281219
18649	21406324	8.640472	-3.263749	3.283247	0.065002	-0.227371	0.387371	-43.819827	-75.177434	-50.785024	39.979034784	116.338898317	49.281064
18650	21406349	8.593497	-3.298201	3.315029	0.094031	-0.183287	0.376059	-44.022202	-75.159783	-50.561795	39.979034798	116.338898324	49.280907
18651	21406374	8.550980	-3.112507	3.347524	0.122035	-0.140646	0.345512	-44.192184	-75.140607	-50.367910	39.979034812	116.338898331	49.280745
18652	21406399	8.505922	-2.769986	3.376552	0.156517	-0.098901	0.306852	-44.326123	-75.120881	-50.206188	39.979034826	116.338898338	49.280583
18653	21406424	8.503208	-2.570833	3.472979	0.174396	-0.057600	0.282702	-44.432259	-75.099259	-50.070571	39.979034840	116.338898345	49.280418
18654	21406449	8.554195	-2.447341	3.554480	0.171635	-0.029661	0.273485	-44.524376	-75.075646	-49.949856	39.979034855	116.338898352	49.280251
18655	21406474	8.543258	-2.305799	3.601497	0.143105	-0.004576	0.278457	-44.612683	-75.048926	-49.837297	39.979034869	116.338898359	49.283212
18656	21406499	8.595851	-2.221736	3.567196	0.104730	0.006866	0.277767	-44.701552	-75.021063	-49.729834	39.979034884	116.338898366	49.283042
18657	21406524	8.608282	-2.201080	3.560619	0.062339	0.017750	0.281133	-44.793303	-74.991711	-49.625659	39.979034898	116.338898373	49.282869
18658	21406549	8.658166	-2.101809	3.513088	0.014284	0.019886	0.279498	-44.890129	-74.962262	-49.523342	39.979034913	116.338898379	49.282694
18659	21406574	8.687423	-2.027212	3.433537	-0.018807	0.013077	0.275035	-44.992186	-74.933910	-49.420503	39.979034928	116.338898386	49.282516
18660	21406599	8.647786	-2.023945	3.300522	-0.048749	0.010107	0.269520	-45.097194	-74.906368	-49.319037	39.979034943	116.338898393	49.282335
18661	21406624	8.655113	-1.955970	3.158469	-0.073300	0.007252	0.271466	-45.207142	-74.878868	-49.216082	39.979034958	116.338898399	49.282152
18662	21406649	8.646930	-2.119300	3.036890	-0.102140	0.006610	0.280979	-45.324613	-74.850412	-49.109600	39.979034973	116.338898406	49.281965
18663	21406674	8.605951	-2.176380	2.850489	-0.135233	0.012392	0.295353	-45.449554	-74.819849	-49.000275	39.979034988	116.338898413	49.281536
18664	21406699	8.669700	-2.149718	2.712326	-0.159942	0.026864	0.298543	-45.573294	-74.787446	-48.895846	39.979035003	116.338898419	49.281342
18665	21406724	8.722347	-2.031227	2.676822	-0.165822	0.036477	0.304586	-45.695996	-74.753403	-48.793349	39.979035019	116.338898426	49.281144
18666	21406749	8.700281	-2.117739	2.632645	-0.164069	0.047334	0.302014	-45.812928	-74.718482	-48.696555	39.979035034	116.338898433	49.280944
18667	21406774	8.457612	-2.123437	2.691013	-0.156792	0.049540	0.310665	-45.930654	-74.682399	-48.597843	39.979035050	116.338898439	49.280738
18668	21406799	8.373432	-2.384394	2.581123	-0.130548	0.078450	0.309901	-46.032988	-74.643468	-48.511174	39.979035065	116.338898446	49.280528
18669	21406824	8.460016	-2.408120	2.660872	-0.095716	0.113031	0.290859	-46.110031	-74.603029	-48.445544	39.979035081	116.338898452	49.280314
18670	21406849	8.418248	-2.568028	2.744094	-0.052539	0.152870	0.264706	-46.156224	-74.561317	-48.405487	39.979035096	116.338898458	49.280096
18671	21406874	8.430338	-2.552031	2.877141	-0.018810	0.182812	0.233276	-46.174928	-74.519877	-48.388929	39.979035112	116.338898465	49.283023
18672	21406899	8.373692	-2.475393	2.983732	0.012183	0.188914	0.220758	-46.182366	-74.479124	-48.379453	39.979035128	116.338898471	49.282800
18673	21406924	8.339060	-2.400126	3.096986	0.035653	0.180691	0.203788	-46.183411	-74.440940	-48.373122	39.979035144	116.338898477	49.282572
18674	21406949	8.297856	-2.294242	3.113236	0.053805	0.165729	0.205202	-46.187885	-74.404094	-48.360532	39.979035159	116.338898484	49.282339
18675	21406974	8.235923	-2.243310	3.108049	0.066423	0.147520	0.213166	-46.200062	-74.368229	-48.338063	39.979035175	116.338898490	49.282099
18676	21406999	8.282526	-2.317874	3.166326	0.063039	0.124758	0.224221	-46.224945	-74.333476	-48.302899	39.979035192	116.338898496	49.281856
18677	21407024	8.171995	-2.500916	3.186927	0.046742	0.091714	0.225937	-46.264801	-74.301813	-48.254602	39.979035208	116.338898502	49.281608
18678	21407049	8.054773	-2.608144	3.163862	0.021738	0.056899	0.215143	-46.317073	-74.274703	-48.197121	39.979035224	116.338898508	49.281355
18679	21407074	8.005245	-2.631313	3.111910	0.000988	0.021057	0.195779	-46.378521	-74.253128	-48.133188	39.979035240	116.338898514	49.280869
18680	21407099	7.959868	-2.690201	3.034567	-0.040172	-0.005095	0.173856	-46.447641	-74.236391	-48.067403	39.979035257	116.338898520	49.280602
18681	21407124	7.892540	-2.696753	2.950754	-0.086793	-0.015457	0.168212	-46.525136	-74.221239	-47.999849	39.979035273	116.338898526	49.280329
18682	21407149	7.849783	-2.599318	3.021545	-0.126074	-0.017092	0.153889	-46.603735	-74.207713	-47.936991	39.979035290	116.338898532	49.280049
18683	21407174	7.828701	-2.731763	3.116825	-0.152023	-0.021659	0.143382	-46.683963	-74.195707	-47.876299	39.979035307	116.338898537	49.279761
18684	21407199	7.835443	-2.697663	3.198070	-0.173689	-0.035687	0.132222	-46.768488	-74.186218	-47.814363	39.979035324	116.338898543	49.279466
18685	21407224	7.769179	-2.729390	3.220552	-0.189593	-0.050038	0.113317	-46.853958	-74.180086	-47.753809	39.979035340	116.338898549	49.279164
18686	21407249	7.775880	-2.849145	3.229464	-0.197813	-0.059341	0.105593	-46.941318	-74.175647	-47.692514	39.979035357	116.338898554	49.278855
18687	21407274	7.764708	-2.890549	3.266555	-0.208880	-0.065395	0.082576	-47.024531	-74.174185	-47.637177	39.979035375	116.338898560	49.277263
18688	21407299	7.743939	-2.926383	3.283735	-0.219765	-0.075069	0.059243	-47.104842	-74.176093	-47.586475	39.979035392	116.338898565	49.276938
18689	21407324	7.808605	-2.912822	3.339658	-0.219329	-0.084493	0.032234	-47.179318	-74.181736	-47.541775	39.979035409	116.338898570	49.276607
18690	21407349	7.906489	-2.892161	3.327835	-0.217181	-0.098492	-0.003296	-47.246524	-74.192461	-47.504312	39.979035426	116.338898575	49.276269
18691	21407374	7.953536	-2.783425	3.310932	-0.205041	-0.105616	-0.028324	-47.306117	-74.206501	-47.472957	39.979035444	116.338898581	49.275926
18692	21407399	8.003352	-2.688349	3.282033	-0.207698	-0.108577	-0.047630	-47.360644	-74.222853	-47.447264	39.979035462	116.338898586	49.275576
18693	21407424	8.053076	-2.664870	3.247538	-0.197272	-0.109163	-0.060053	-47.409710	-74.240565	-47.425696	39.979035479	116.338898591	49.275219
18694	21407449	8.102605	-2.691050	3.254159	-0.203383	-0.104734	-0.069152	-47.454945	-74.258803	-47.409020	39.979035497	116.338898596	49.274858
18695	21407474	8.126035	-2.684200	3.258192	-0.214627	-0.098778	-0.074336	-47.497845	-74.277008	-47.396442	39.979035515	116.338898601	49.276679
18696	21407499	8.165957	-2.689745	3.270158	-0.225201	-0.080283	-0.080086	-47.533398	-74.294029	-47.393073	39.979035533	116.338898605	49.276309
18697	21407524	8.249798	-2.758764	3.315193	-0.232828	-0.071239	-0.086246	-47.564563	-74.310826	-47.395397	39.979035551	116.338898610	49.275934
18698	21407549	8.219482	-2.775238	3.305825	-0.247882	-0.053026	-0.090089	-47.589729	-74.326270	-47.406193	39.979035569	116.338898615	49.275555
18699	21407574	8.237251	-2.838612	3.330895	-0.263573	-0.033915	-0.085139	-47.611652	-74.339346	-47.422689	39.979035588	116.338898620	49.275172
18700	21407599	8.272958	-2.904721	3.339984	-0.278430	-0.015630	-0.080554	-47.630382	-74.350173	-47.444710	39.979035606	116.338898624	49.274784
18701	21407624	8.274165	-2.931069	3.387793	-0.289311	-0.002778	-0.082348	-47.645192	-74.359951	-47.472419	39.979035624	116.338898629	49.274392
18702	21407649	8.297469	-2.953221	3.431612	-0.294229	0.019050	-0.080769	-47.652987	-74.367456	-47.508144	39.979035643	116.338898633	49.273996
18703	21407674	8.300095	-2.989114	3.454126	-0.294939	0.035095	-0.080226	-47.654986	-74.373357	-47.549992	39.979035662	116.338898637	49.273567
18704	21407699	8.311027	-3.004368	3.484667	-0.298274	0.052810	-0.086485	-47.648582	-74.378211	-47.601060	39.979035681	116.338898642	49.273164
18705	21407724	8.326082	-3.033349	3.520465	-0.294226	0.063665	-0.089227	-47.636524	-74.382306	-47.657395	39.979035700	116.338898646	49.272757
18706	21407749	8.357657	-3.032167	3.560424	-0.296208	0.088030	-0.087816	-47.615999	-74.383894	-47.722817	39.979035719	116.338898650	49.272347
18707	21407774	8.312102	-2.992452	3.616384	-0.300103	0.103766	-0.082898	-47.591772	-74.383436	-47.792662	39.979035738	116.338898654	49.271934
18708	21407799	8.296709	-3.036726	3.680100	-0.299174	0.125770	-0.094096	-47.555221	-74.382025	-47.875164	39.979035757	116.338898658	49.271518
18709	21407824	8.356897	-3.118442	3.824771	-0.302324	0.150479	-0.103125	-47.506675	-74.379162	-47.970590	39.979035776	116.338898662	49.271098
18710	21407849	8.362589	-2.931444	3.859973	-0.326079	0.162782	-0.120978	-47.450731	-74.376969	-48.077233	39.979035796	116.338898666	49.270676
18711	21407874	8.417760	-2.791370	3.924291	-0.348856	0.181243	-0.138137	-47.385165	-74.374767	-48.197257	39.979035816	116.338898670	49.270311
18712	21407899	8.492192	-2.696570	3.972534	-0.384164	0.191903	-0.152557	-47.315662	-74.373011	-48.326622	39.979035836	116.338898673	49.269883
18713	21407924	8.548792	-2.542646	4.019627	-0.400832	0.199825	-0.166522	-47.240734	-74.371910	-48.464099	39.979035855	116.338898677	49.269453
18714	21407949	8.609417	-2.534399	4.027695	-0.417563	0.217684	-0.188909	-47.153717	-74.371372	-48.616618	39.979035876	116.338898681	49.269022
18715	21407974	8.703129	-2.526172	4.021120	-0.438805	0.229241	-0.209633	-47.058190	-74.371817	-48.781134	39.979035896	116.338898684	49.268590
18716	21407999	8.740440	-2.517765	3.989270	-0.450228	0.262532	-0.225647	-46.946240	-74.370607	-48.964403	39.979035916	116.338898688	49.268156
18717	21408024	8.752698	-2.508388	4.047834	-0.457120	0.289495	-0.244702	-46.818561	-74.368646	-49.165031	39.979035937	116.338898691	49.267721
18718	21408049	8.813278	-2.427480	4.115961	-0.453931	0.320201	-0.271089	-46.669766	-74.366294	-49.387114	39.979035957	116.338898695	49.267286
18719	21408074	8.857264	-2.416672	4.173186	-0.443879	0.346372	-0.282659	-46.505800	-74.362405	-49.623458	39.979035978	116.338898698	49.269259
18720	21408099	8.843488	-2.400179	4.173249	-0.442082	0.356118	-0.283344	-46.337832	-74.357441	-49.863697	39.979035999	116.338898702	49.268825
18721	21408124	8.796443	-2.427919	4.234296	-0.432442	0.364363	-0.282209	-46.165978	-74.351351	-50.106543	39.979036020	116.338898705	49.268391
18722	21408149	8.680499	-2.529863	4.260477	-0.434159	0.382169	-0.270364	-45.992202	-74.342072	-50.351651	39.979036041	116.338898709	49.267957
18723	21408174	8.660877	-2.604530	4.365233	-0.436927	0.370044	-0.255543	-45.828788	-74.332283	-50.586420	39.979036062	116.338898712	49.267520
18724	21408199	8.541682	-2.567138	4.657854	-0.412877	0.328468	-0.221515	-45.689495	-74.322988	-50.792571	39.979036084	116.338898715	49.267083
18725	21408224	8.444561	-2.834576	4.799122	-0.381059	0.247051	-0.184876	-45.588584	-74.317979	-50.954128	39.979036105	116.338898719	49.266645
18726	21408249	8.272087	-3.010645	4.794412	-0.340001	0.105792	-0.171435	-45.538078	-74.325704	-51.057223	39.979036127	116.338898722	49.266205
18727	21408274	8.278721	-3.122914	4.280692	-0.285171	-0.053173	-0.171122	-45.537675	-74.349333	-51.100121	39.979036149	116.338898725	49.263679
18728	21408299	8.292643	-3.102625	3.646489	-0.214237	-0.142224	-0.181052	-45.556022	-74.382913	-51.112988	39.979036171	116.338898728	49.263232
18731	21408324	8.373238	-3.020582	3.420749	-0.150990	-0.197564	-0.196400	-45.580089	-74.423612	-51.110511	39.979036194	116.338898731	49.262781
18732	21408349	8.482221	-3.032715	3.351625	-0.089949	-0.238015	-0.204681	-45.607374	-74.469214	-51.095617	39.979036216	116.338898734	49.262328
18733	21408374	8.590829	-3.162233	3.384472	-0.033949	-0.286616	-0.203946	-45.635802	-74.516301	-51.088211	39.979035987	116.338898512	49.267888
18734	21408399	8.644140	-3.253561	3.510501	-0.004433	-0.341891	-0.214224	-45.686161	-74.573274	-51.036676	39.979036009	116.338898515	49.267465
18735	21408424	8.563898	-3.302073	3.595416	0.027111	-0.401565	-0.217511	-45.753449	-74.636538	-50.962910	39.979036031	116.338898517	49.267041
18736	21408449	8.535779	-3.408713	3.786482	0.047237	-0.498128	-0.214195	-45.855917	-74.709074	-50.849701	39.979036054	116.338898520	49.266616
18737	21408474	8.310564	-3.513939	3.962862	0.052255	-0.598985	-0.214274	-45.996853	-74.791604	-50.695915	39.979036077	116.338898522	49.268443
18738	21408499	8.265426	-3.817581	4.211826	0.051302	-0.730585	-0.223795	-46.186358	-74.888073	-50.492019	39.979036099	116.338898524	49.268016
18739	21408524	8.293881	-4.046479	4.350641	0.039594	-0.914121	-0.272246	-46.433244	-75.007515	-50.230542	39.979036122	116.338898527	49.267587
18740	21408549	8.314495	-3.872931	3.961525	0.027362	-1.104454	-0.361107	-46.727849	-75.154620	-49.921659	39.979036145	116.338898529	49.267156
18741	21408574	8.248846	-3.536261	3.348345	0.018942	-1.245341	-0.452617	-47.051942	-75.324654	-49.583754	39.979036169	116.338898531	49.266720
18742	21408599	8.315011	-3.296578	2.901086	0.022773	-1.345732	-0.515904	-47.400398	-75.510600	-49.220384	39.979036192	116.338898532	49.266282
18743	21408624	8.523779	-3.236399	2.602278	0.039215	-1.394139	-0.546204	-47.764372	-75.703855	-48.838871	39.979036215	116.338898534	49.265841
18744	21408649	8.956604	-3.358424	2.457255	0.074206	-1.411740	-0.543560	-48.141928	-75.897900	-48.438508	39.979036239	116.338898536	49.265397
18745	21408674	9.455331	-3.530283	2.386526	0.117189	-1.406806	-0.534273	-48.525483	-76.089824	-48.025953	39.979036262	116.338898537	49.266153
18746	21408699	9.889548	-3.623529	2.262817	0.155614	-1.389533	-0.506249	-48.917724	-76.276419	-47.599124	39.979036286	116.338898538	49.265715
18747	21408724	10.236877	-3.718214	2.172251	0.187934	-1.340867	-0.449778	-49.316450	-76.451628	-47.161188	39.979036309	116.338898540	49.265284
18748	21408749	10.440835	-3.808820	2.092328	0.215991	-1.265617	-0.386892	-49.711918	-76.612269	-46.722778	39.979036333	116.338898541	49.264861
18749	21408774	10.625085	-3.957692	2.154405	0.228347	-1.175950	-0.323577	-50.098474	-76.756998	-46.291985	39.979036357	116.338898542	49.264454
18750	21408799	10.747239	-4.064204	2.292445	0.237724	-1.083459	-0.270289	-50.469599	-76.886731	-45.875905	39.979036380	116.338898542	49.264050
18751	21408824	10.772979	-4.030501	2.486739	0.234708	-0.984593	-0.223328	-50.819775	-77.001683	-45.481979	39.979036404	116.338898543	49.263656
18752	21408849	10.761545	-3.962521	2.697058	0.222750	-0.894767	-0.179446	-51.151681	-77.103119	-45.108730	39.979036428	116.338898544	49.263274
18753	21408874	10.776195	-3.827326	2.972832	0.204155	-0.803925	-0.132220	-51.465536	-77.190668	-44.756866	39.979036452	116.338898544	49.265261
18754	21408899	10.808580	-3.710251	3.316387	0.184765	-0.713220	-0.089774	-51.758188	-77.264968	-44.429706	39.979036476	116.338898544	49.264903
18755	21408924	10.838086	-3.660708	3.678307	0.172435	-0.626618	-0.037842	-52.033047	-77.325400	-44.122682	39.979036500	116.338898544	49.264557
18756	21408949	10.845434	-3.690934	4.033283	0.164403	-0.541215	-0.004736	-52.281541	-77.374274	-43.843925	39.979036525	116.338898545	49.264223
18757	21408974	10.861104	-3.598903	4.455140	0.152090	-0.479664	0.014026	-52.509808	-77.415383	-43.587751	39.979036549	116.338898545	49.263904
18758	21408999	10.892372	-3.407322	4.756365	0.156607	-0.431839	0.024146	-52.718447	-77.450969	-43.351062	39.979036574	116.338898544	49.263595
18759	21409024	10.876803	-3.211652	5.048185	0.155348	-0.405891	0.021221	-52.914026	-77.484459	-43.127968	39.979036599	116.338898544	49.263299
18760	21409049	10.865592	-2.974415	5.278999	0.154273	-0.407830	0.014426	-53.109242	-77.518729	-42.905433	39.979036624	116.338898544	49.263016
18761	21409074	10.847806	-2.773796	5.354121	0.154971	-0.432509	0.008735	-53.316140	-77.555600	-42.670860	39.979036649	116.338898544	49.265118
18762	21409099	10.883959	-2.671765	5.285296	0.144649	-0.459471	0.002268	-53.537443	-77.595326	-42.423087	39.979036674	116.338898543	49.264861
18763	21409124	10.947627	-2.654897	5.194910	0.119582	-0.496310	-0.005120	-53.780411	-77.638816	-42.156849	39.979036700	116.338898543	49.264618
18764	21409149	11.030849	-2.638963	4.968981	0.085613	-0.520849	0.003363	-54.046337	-77.683140	-41.872135	39.979036726	116.338898543	49.264387
18765	21409174	11.115402	-2.695917	4.746726	0.033075	-0.535984	-0.012109	-54.323935	-77.730240	-41.583228	39.979036752	116.338898542	49.264170
18766	21409199	11.255121	-2.798103	4.457887	-0.022969	-0.541191	-0.017694	-54.612410	-77.778121	-41.291456	39.979036778	116.338898542	49.263966
18767	21409224	11.368575	-2.927834	4.183599	-0.098270	-0.530315	-0.025269	-54.905159	-77.825674	-41.006400	39.979036805	116.338898541	49.263776
18768	21409249	11.506963	-2.947516	3.937578	-0.177419	-0.506608	-0.035894	-55.194500	-77.872223	-40.736478	39.979036831	116.338898541	49.263600
18769	21409274	11.612277	-2.895864	3.718387	-0.245258	-0.471591	-0.043619	-55.473477	-77.916546	-40.487132	39.979036858	116.338898540	49.272506
18770	21409299	11.722970	-2.896520	3.526979	-0.319131	-0.435823	-0.036618	-55.747789	-77.956895	-40.253424	39.979036885	116.338898540	49.272371
18771	21409324	11.931077	-2.943199	3.481731	-0.377286	-0.404775	-0.026789	-56.018503	-77.993352	-40.031945	39.979036912	116.338898539	49.272253
18772	21409349	12.140434	-3.002400	3.488321	-0.402816	-0.372869	-0.020027	-56.278982	-78.026244	-39.824696	39.979036939	116.338898539	49.272153
18773	21409374	12.303001	-3.016197	3.502944	-0.415835	-0.341725	-0.020143	-56.524975	-78.056490	-39.634184	39.979036966	116.338898538	49.272079
18774	21409399	12.360906	-2.983199	3.508448	-0.406809	-0.309271	-0.027385	-56.749654	-78.084885	-39.464157	39.979036993	116.338898537	49.272018
18775	21409424	12.421365	-3.026024	3.554893	-0.386150	-0.279105	-0.022091	-56.957070	-78.110148	-39.308765	39.979037021	116.338898536	49.271977
18776	21409449	12.445926	-3.057938	3.631918	-0.358979	-0.246798	-0.037108	-57.137300	-78.134592	-39.177190	39.979037049	116.338898535	49.271957
18777	21409474	12.470578	-3.022519	3.718455	-0.336014	-0.224426	-0.051524	-57.296685	-78.158954	-39.063558	39.979037076	116.338898535	49.280826
18778	21409499	12.539226	-3.039355	3.811592	-0.304796	-0.211701	-0.062221	-57.440879	-78.183564	-38.960896	39.979037104	116.338898534	49.280857
18779	21409524	12.656193	-2.995725	3.908800	-0.269447	-0.205319	-0.077149	-57.571326	-78.209435	-38.867114	39.979037132	116.338898533	49.280909
18780	21409549	12.768991	-2.920572	4.040757	-0.244075	-0.215505	-0.090507	-57.699634	-78.237660	-38.771813	39.979037160	116.338898532	49.280985
18781	21409574	12.873827	-2.868252	4.029019	-0.210011	-0.235766	-0.106934	-57.829381	-78.269380	-38.670069	39.979037188	116.338898531	49.281086
18782	21409599	12.962127	-2.935363	3.945069	-0.196184	-0.252917	-0.124465	-57.961392	-78.304484	-38.564004	39.979037217	116.338898530	49.281208
18783	21409624	13.078155	-2.980285	3.802711	-0.187437	-0.261018	-0.139211	-58.092221	-78.341946	-38.457879	39.979037245	116.338898529	49.281354
18784	21409649	13.130790	-2.964799	3.705686	-0.182685	-0.264204	-0.151929	-58.220348	-78.381147	-38.353833	39.979037274	116.338898528	49.281525
18785	21409674	13.233330	-2.876106	3.519877	-0.180359	-0.272708	-0.168929	-58.347741	-78.423013	-38.250209	39.979037303	116.338898526	49.284748
18786	21409699	13.282174	-2.802389	3.317965	-0.193478	-0.264305	-0.171612	-58.471844	-78.464530	-38.151879	39.979037332	116.338898525	49.284972
18787	21409724	13.315805	-2.728737	3.126820	-0.190780	-0.254090	-0.182721	-58.586140	-78.506600	-38.063177	39.979037361	116.338898524	49.285222
18788	21409749	13.354961	-2.648237	2.947504	-0.187595	-0.230210	-0.191259	-58.683159	-78.547900	-37.991653	39.979037390	116.338898523	49.285496
18789	21409774	13.354121	-2.585628	2.760226	-0.183615	-0.209342	-0.201742	-58.763694	-78.588910	-37.936375	39.979037419	116.338898522	49.285796
18790	21409799	13.331286	-2.528428	2.548965	-0.176819	-0.178449	-0.211328	-58.821382	-78.628789	-37.903417	39.979037448	116.338898521	49.286120
18791	21409824	13.252018	-2.477945	2.322997	-0.169902	-0.139382	-0.220485	-58.851113	-78.666889	-37.897968	39.979037478	116.338898519	49.286469
18792	21409849	13.182592	-2.305040	2.078832	-0.156629	-0.095880	-0.233614	-58.847491	-78.703375	-37.924595	39.979037507	116.338898518	49.286842
18793	21409874	13.045295	-2.282233	1.887332	-0.141729	-0.050916	-0.246741	-58.809071	-78.738133	-37.984526	39.979037537	116.338898517	49.289004
18794	21409899	12.977139	-2.084787	1.704415	-0.122876	0.001547	-0.265558	-58.728241	-78.771288	-38.084937	39.979037566	116.338898516	49.289423
18795	21409924	12.875826	-1.935458	1.525314	-0.099716	0.055084	-0.267747	-58.609660	-78.800690	-38.220441	39.979037595	116.338898515	49.289863
18796	21409949	12.782714	-1.786239	1.370162	-0.071283	0.123778	-0.269470	-58.443223	-78.825098	-38.400563	39.979037625	116.338898514	49.290324
18797	21409974	12.639961	-1.674217	1.212185	-0.048655	0.188659	-0.260052	-58.236307	-78.843367	-38.618629	39.979037654	116.338898513	49.290799
18798	21409999	12.444823	-1.519554	1.082266	-0.032881	0.252329	-0.247358	-57.992060	-78.855108	-38.872429	39.979037684	116.338898512	49.291297
18799	21410024	12.219193	-1.487385	0.953259	-0.027968	0.325893	-0.231302	-57.707577	-78.859068	-39.166515	39.979037713	116.338898511	49.291811
18800	21410049	11.965948	-1.455296	0.856066	-0.028725	0.396010	-0.224718	-57.382621	-78.856539	-39.501961	39.979037743	116.338898510	49.292341
18801	21410074	11.701446	-1.479826	0.809335	-0.038178	0.463615	-0.209777	-57.023868	-78.846580	-39.873242	39.979037772	116.338898509	49.292248
18802	21410099	11.453601	-1.497316	0.722616	-0.056070	0.528947	-0.206716	-56.629965	-78.830662	-40.282978	39.979037801	116.338898508	49.292802
18803	21410124	11.164347	-1.491629	0.678604	-0.083463	0.596272	-0.206690	-56.200635	-78.808837	-40.732854	39.979037831	116.338898507	49.293366
18804	21410149	10.883272	-1.483220	0.669155	-0.114205	0.656399	-0.197132	-55.745422	-78.780385	-41.213643	39.979037860	116.338898506	49.293939
18805	21410174	10.638025	-1.505112	0.639644	-0.140144	0.708564	-0.198020	-55.265081	-78.747044	-41.723891	39.979037889	116.338898505	49.294509
18806	21410199	10.445158	-1.509137	0.618238	-0.169407	0.754060	-0.200243	-54.764292	-78.709378	-42.259326	39.979037918	116.338898504	49.295093
18807	21410224	10.277042	-1.518699	0.616758	-0.203948	0.796592	-0.202133	-54.246458	-78.667466	-42.817263	39.979037948	116.338898503	49.295682
18808	21410249	10.128336	-1.489655	0.583498	-0.223941	0.834570	-0.210187	-53.710297	-78.622282	-43.396899	39.979037977	116.338898502	49.296274
18809	21410274	10.001670	-1.479882	0.550197	-0.230931	0.866935	-0.207509	-53.162371	-78.572951	-43.989655	39.979038006	116.338898501	49.297261
18810	21410299	9.894225	-1.470175	0.535514	-0.242709	0.888309	-0.206997	-52.609314	-78.520591	-44.589474	39.979038035	116.338898501	49.297857
18811	21410324	9.828222	-1.441119	0.498320	-0.248031	0.902556	-0.208058	-52.053951	-78.465954	-45.192538	39.979038064	116.338898500	49.298454
18812	21410349	9.744331	-1.381824	0.465209	-0.247763	0.908222	-0.202160	-51.503523	-78.408993	-45.790645	39.979038093	116.338898499	49.299051
18813	21410374	9.666114	-1.275571	0.390998	-0.253056	0.906846	-0.200819	-50.960836	-78.350865	-46.381747	39.979038122	116.338898498	49.299645
18814	21410399	9.630687	-1.214519	0.266150	-0.261550	0.903742	-0.197427	-50.428177	-78.291528	-46.963976	39.979038151	116.338898497	49.300242
18815	21410424	9.591160	-1.080691	0.166795	-0.295037	0.891702	-0.191894	-49.914740	-78.231613	-47.531597	39.979038180	116.338898496	49.300837
18816	21410449	9.579299	-0.894511	0.059685	-0.327820	0.867152	-0.187925	-49.426007	-78.172533	-48.078900	39.979038208	116.338898496	49.301431
18817	21410474	9.618417	-0.728926	-0.060784	-0.367704	0.843528	-0.174205	-48.966410	-78.113254	-48.602392	39.979038237	116.338898495	49.297738
18818	21410499	9.603946	-0.567230	-0.242449	-0.405596	0.822336	-0.167003	-48.531096	-78.054361	-49.106724	39.979038266	116.338898494	49.298323
18819	21410524	9.658181	-0.427827	-0.356379	-0.452808	0.799507	-0.155601	-48.123729	-77.995659	-49.589509	39.979038294	116.338898494	49.298907
18820	21410549	9.713712	-0.300832	-0.453001	-0.493969	0.766967	-0.152756	-47.744005	-77.939091	-50.050162	39.979038323	116.338898493	49.299488
18821	21410574	9.801093	-0.105042	-0.564080	-0.538159	0.727925	-0.160855	-47.390028	-77.886538	-50.491051	39.979038351	116.338898493	49.300069
18822	21410599	9.829481	0.159865	-0.750656	-0.597687	0.692260	-0.168830	-47.061721	-77.837744	-50.914489	39.979038379	116.338898492	49.300646
18823	21410624	9.868851	0.395788	-0.917416	-0.656101	0.662950	-0.167759	-46.759384	-77.791218	-51.319995	39.979038407	116.338898492	49.301222
18824	21410649	9.903727	0.557094	-0.996649	-0.718594	0.634752	-0.152575	-46.489049	-77.745457	-51.701984	39.979038435	116.338898492	49.301795
18825	21410674	9.985335	0.696214	-1.036021	-0.785221	0.614733	-0.137937	-46.246820	-77.699794	-52.065040	39.979038463	116.338898492	49.306032
18826	21410699	10.018611	0.804992	-1.051556	-0.834662	0.594750	-0.123353	-46.029941	-77.654301	-52.409463	39.979038490	116.338898492	49.306605
18827	21410724	10.028272	0.877750	-1.014103	-0.863514	0.577305	-0.106728	-45.834963	-77.608571	-52.735756	39.979038518	116.338898492	49.307177
18828	21410749	9.997953	0.942354	-0.982002	-0.867300	0.557250	-0.092605	-45.658171	-77.563171	-53.044040	39.979038545	116.338898492	49.307747
18829	21410774	9.982880	0.983607	-0.983155	-0.843242	0.540848	-0.085998	-45.490268	-77.518539	-53.339745	39.979038572	116.338898493	49.308313
18830	21410799	9.878033	0.984840	-0.936727	-0.789479	0.522086	-0.073306	-45.330684	-77.474318	-53.619091	39.979038599	116.338898494	49.308878
18832	21410824	9.862698	0.990073	-0.860886	-0.710537	0.504229	-0.073807	-45.169259	-77.431779	-53.888786	39.979038626	116.338898494	49.309441
18834	21410849	9.792282	0.973404	-0.817060	-0.608662	0.490825	-0.075077	-45.000210	-77.390556	-54.151385	39.979038652	116.338898495	49.310000
18835	21410874	9.734164	0.872787	-0.773543	-0.483504	0.485738	-0.073710	-44.814768	-77.344870	-54.468826	39.979038449	116.338898581	49.293484
18836	21410899	9.722674	0.736184	-0.667595	-0.349037	0.484741	-0.073533	-44.614957	-77.303742	-54.724927	39.979038475	116.338898583	49.294006
18837	21410924	9.731761	0.569183	-0.539163	-0.204755	0.482133	-0.078306	-44.394978	-77.263153	-54.980557	39.979038501	116.338898584	49.294524
18838	21410949	9.711988	0.405055	-0.441288	-0.059554	0.478296	-0.088592	-44.152769	-77.223761	-55.237697	39.979038526	116.338898586	49.295040
18839	21410974	9.700452	0.273848	-0.312724	0.084905	0.473122	-0.099140	-43.888898	-77.185701	-55.495870	39.979038552	116.338898588	49.295553
18840	21410999	9.712344	0.112432	-0.201511	0.215188	0.473327	-0.103705	-43.605780	-77.147799	-55.754682	39.979038578	116.338898590	49.296064
18841	21411024	9.750478	0.000509	-0.084834	0.313017	0.472960	-0.114992	-43.305279	-77.110755	-56.016990	39.979038603	116.338898592	49.296572
18842	21411049	9.765135	-0.136229	0.039749	0.405420	0.476638	-0.115526	-42.991363	-77.073066	-56.279520	39.979038628	116.338898594	49.297078
18843	21411074	9.785249	-0.262023	0.192248	0.464390	0.484009	-0.117704	-42.666573	-77.034488	-56.544579	39.979038654	116.338898596	49.300521
18844	21411099	9.861847	-0.408427	0.334180	0.517726	0.482352	-0.114322	-42.338152	-76.995420	-56.805568	39.979038679	116.338898598	49.301028
18845	21411124	9.876482	-0.528706	0.476049	0.549138	0.485545	-0.114205	-42.005731	-76.955665	-57.066085	39.979038704	116.338898601	49.301535
18846	21411149	9.884346	-0.575995	0.608916	0.573154	0.484224	-0.119855	-41.669617	-76.916249	-57.326904	39.979038729	116.338898603	49.302041
18847	21411174	9.925312	-0.587586	0.755207	0.589952	0.484155	-0.115068	-41.335124	-76.876041	-57.583630	39.979038754	116.338898606	49.302550
18848	21411199	9.960652	-0.610295	0.934668	0.603722	0.487265	-0.109996	-41.001558	-76.834681	-57.837422	39.979038779	116.338898608	49.303058
18849	21411224	9.996135	-0.619067	1.070306	0.600469	0.476760	-0.097568	-40.680225	-76.792967	-58.079170	39.979038803	116.338898611	49.303567
18850	21411249	10.041111	-0.663785	1.251055	0.590657	0.467187	-0.086828	-40.370815	-76.750992	-58.310156	39.979038828	116.338898613	49.304077
18851	21411274	10.043529	-0.673903	1.381361	0.578585	0.453354	-0.081065	-40.072914	-76.709718	-58.531137	39.979038853	116.338898616	49.300558
18852	21411299	10.099685	-0.677184	1.518348	0.563128	0.433561	-0.067782	-39.792649	-76.669141	-58.736303	39.979038878	116.338898619	49.301069
18853	21411324	10.111740	-0.684587	1.651330	0.536397	0.415966	-0.056604	-39.529623	-76.629258	-58.927722	39.979038903	116.338898621	49.301582
18854	21411349	10.177664	-0.701428	1.729768	0.509176	0.392534	-0.046176	-39.285603	-76.590825	-59.103643	39.979038927	116.338898624	49.302098
18855	21411374	10.185704	-0.688029	1.832230	0.472617	0.377259	-0.029355	-39.061600	-76.552401	-59.264396	39.979038952	116.338898627	49.302618
18856	21411399	10.214447	-0.675982	1.914763	0.430329	0.359328	-0.012831	-38.859141	-76.514347	-59.409250	39.979038977	116.338898630	49.303141
18857	21411424	10.234856	-0.658530	2.029213	0.395414	0.340483	0.002804	-38.676935	-76.476882	-59.538442	39.979039001	116.338898633	49.303668
18858	21411449	10.242910	-0.669817	2.110283	0.358142	0.323279	0.021817	-38.516113	-76.439553	-59.651150	39.979039026	116.338898636	49.304198
18859	21411474	10.237238	-0.664614	2.179459	0.333877	0.308819	0.039166	-38.372887	-76.402234	-59.749354	39.979039051	116.338898639	49.298417
18860	21411499	10.237140	-0.655091	2.222082	0.300477	0.298646	0.058143	-38.247607	-76.364318	-59.834026	39.979039075	116.338898642	49.298949
18861	21411524	10.216456	-0.651006	2.230052	0.282069	0.278208	0.066939	-38.137047	-76.327882	-59.906277	39.979039100	116.338898646	49.299485
18862	21411549	10.150334	-0.639976	2.228728	0.254390	0.268841	0.081681	-38.041136	-76.291170	-59.967543	39.979039125	116.338898649	49.300025
18863	21411574	10.089771	-0.597251	2.218213	0.231151	0.262970	0.081500	-37.950999	-76.255112	-60.026301	39.979039149	116.338898653	49.300566
18864	21411599	10.033371	-0.544954	2.215668	0.206009	0.252281	0.101101	-37.877712	-76.218517	-60.071427	39.979039174	116.338898656	49.301112
18865	21411624	9.974143	-0.520159	2.214425	0.175203	0.251354	0.108275	-37.812775	-76.181383	-60.112507	39.979039199	116.338898660	49.301661
18866	21411649	9.923170	-0.506394	2.218425	0.138576	0.254807	0.103393	-37.749890	-76.144277	-60.156883	39.979039224	116.338898663	49.302212
18867	21411674	9.858389	-0.456962	2.254478	0.091286	0.255354	0.106221	-37.695162	-76.106850	-60.199844	39.979039248	116.338898667	49.298759
18868	21411699	9.786753	-0.374567	2.299879	0.049587	0.259119	0.108588	-37.646408	-76.068779	-60.242808	39.979039273	116.338898671	49.299309
18869	21411724	9.695816	-0.292157	2.346642	0.009838	0.262444	0.115432	-37.605543	-76.029725	-60.283518	39.979039298	116.338898675	49.299860
18870	21411749	9.610328	-0.253753	2.386676	-0.022694	0.263955	0.124221	-37.573028	-75.989725	-60.320431	39.979039323	116.338898679	49.300411
18871	21411774	9.537188	-0.208623	2.459904	-0.051153	0.269312	0.128385	-37.544804	-75.948748	-60.357129	39.979039347	116.338898683	49.300960
18872	21411799	9.417071	-0.218528	2.550226	-0.081402	0.259553	0.130351	-37.525375	-75.908704	-60.389234	39.979039372	116.338898687	49.301510
18873	21411824	9.295594	-0.228458	2.628594	-0.106986	0.253937	0.130270	-37.511660	-75.869303	-60.419231	39.979039397	116.338898691	49.302060
18874	21411849	9.189385	-0.221711	2.672446	-0.132935	0.241350	0.125797	-37.504112	-75.831721	-60.446707	39.979039422	116.338898695	49.302607
18875	21411874	9.084435	-0.205534	2.774803	-0.148597	0.231512	0.119898	-37.499641	-75.795772	-60.473331	39.979039447	116.338898700	49.299123
18876	21411899	9.018169	-0.164504	2.846757	-0.155835	0.213531	0.112687	-37.499228	-75.762494	-60.496839	39.979039472	116.338898704	49.299661
18877	21411924	8.885606	-0.265193	2.902182	-0.163478	0.202498	0.116211	-37.505321	-75.730162	-60.514767	39.979039497	116.338898709	49.300196
18878	21411949	8.713412	-0.236211	2.891558	-0.181538	0.182141	0.114694	-37.520313	-75.700277	-60.526184	39.979039522	116.338898714	49.300726
18879	21411974	8.555098	-0.197515	2.853038	-0.187974	0.172240	0.113761	-37.539188	-75.671598	-60.534546	39.979039547	116.338898719	49.301247
18880	21411999	8.440789	-0.238524	2.803616	-0.184320	0.167145	0.109205	-37.557235	-75.643896	-60.543224	39.979039572	116.338898723	49.301766
18881	21412024	8.378782	-0.257744	2.792864	-0.166368	0.154695	0.093202	-37.569849	-75.619006	-60.554857	39.979039598	116.338898728	49.302279
18882	21412049	8.308508	-0.316789	2.752755	-0.149952	0.150137	0.091130	-37.580746	-75.594816	-60.565837	39.979039623	116.338898734	49.302785
18883	21412074	8.169335	-0.418362	2.692491	-0.146028	0.148696	0.081164	-37.587175	-75.571660	-60.580851	39.979039648	116.338898739	49.302668
18884	21412099	8.008216	-0.438741	2.640458	-0.142708	0.156885	0.071183	-37.585969	-75.548446	-60.603259	39.979039674	116.338898744	49.303157
18885	21412124	7.965383	-0.489752	2.656225	-0.142485	0.155781	0.065526	-37.582656	-75.525852	-60.627812	39.979039699	116.338898749	49.303636
18886	21412149	7.956912	-0.601281	2.669169	-0.157276	0.163636	0.072002	-37.581694	-75.501800	-60.652128	39.979039725	116.338898755	49.304107
18887	21412174	7.857640	-0.722200	2.623467	-0.183694	0.170222	0.074047	-37.583231	-75.476822	-60.677774	39.979039750	116.338898760	49.304566
18888	21412199	7.763898	-0.814176	2.581899	-0.209285	0.177205	0.077225	-37.587513	-75.450774	-60.704374	39.979039776	116.338898765	49.305017
18889	21412224	7.643990	-0.888356	2.550986	-0.230800	0.189284	0.070439	-37.587894	-75.423948	-60.738192	39.979039802	116.338898771	49.305457
18890	21412249	7.526850	-0.966604	2.504144	-0.242068	0.200559	0.073539	-37.587520	-75.395571	-60.774462	39.979039827	116.338898777	49.305886
18891	21412274	7.493428	-1.055042	2.598227	-0.257786	0.213848	0.063162	-37.580512	-75.366593	-60.819921	39.979039853	116.338898782	49.303304
18892	21412299	7.443811	-1.096212	2.574118	-0.272624	0.214595	0.065176	-37.576355	-75.337352	-60.864636	39.979039879	116.338898788	49.303706
18893	21412324	7.341921	-1.108407	2.531480	-0.281167	0.228757	0.058870	-37.566071	-75.307053	-60.916954	39.979039905	116.338898793	49.304095
18894	21412349	7.297892	-1.109669	2.510164	-0.278707	0.243282	0.063965	-37.552943	-75.274657	-60.971855	39.979039931	116.338898799	49.304472
18895	21412374	7.250987	-1.089139	2.536812	-0.274040	0.258435	0.060782	-37.532907	-75.240813	-61.033217	39.979039957	116.338898804	49.304834
18896	21412399	7.195939	-1.039608	2.546231	-0.253977	0.278983	0.059411	-37.502815	-75.204748	-61.102017	39.979039983	116.338898810	49.305185
18897	21412424	7.131140	-1.025898	2.564868	-0.232925	0.289167	0.064151	-37.468637	-75.167102	-61.171936	39.979040009	116.338898816	49.305522
18898	21412449	7.055437	-0.973575	2.554355	-0.211722	0.297906	0.061798	-37.427817	-75.128656	-61.245596	39.979040035	116.338898821	49.305844
18899	21412474	7.041749	-0.948723	2.537150	-0.191188	0.308858	0.066783	-37.382905	-75.088514	-61.320457	39.979040061	116.338898827	49.310051
18900	21412499	6.992077	-0.963941	2.558334	-0.178610	0.315893	0.068012	-37.334756	-75.047451	-61.396821	39.979040087	116.338898833	49.310349
18901	21412524	6.945342	-0.900598	2.546539	-0.168744	0.323503	0.065316	-37.281924	-75.005737	-61.476585	39.979040113	116.338898839	49.310631
18902	21412549	6.901162	-0.903465	2.581074	-0.168732	0.329088	0.069772	-37.229549	-74.962981	-61.555890	39.979040140	116.338898845	49.310899
18903	21412574	6.910735	-0.913188	2.602333	-0.178668	0.328597	0.078054	-37.182633	-74.919546	-61.631031	39.979040166	116.338898850	49.311150
18904	21412599	6.894137	-0.895426	2.632970	-0.184262	0.333089	0.085036	-37.138383	-74.874978	-61.704257	39.979040193	116.338898856	49.311386
18905	21412624	6.894121	-0.898210	2.644910	-0.201347	0.327279	0.085036	-37.098771	-74.831060	-61.775228	39.979040219	116.338898862	49.311608
18906	21412649	6.868024	-0.826672	2.647787	-0.201789	0.321290	0.094840	-37.065565	-74.786968	-61.839642	39.979040246	116.338898868	49.311814
18907	21412674	6.837792	-0.807317	2.625244	-0.197767	0.316738	0.104299	-37.037471	-74.742571	-61.898173	39.979040273	116.338898874	49.312282
18908	21412699	6.814482	-0.754930	2.610764	-0.180656	0.314194	0.105253	-37.008381	-74.698375	-61.955209	39.979040299	116.338898880	49.312456
18909	21412724	6.759447	-0.775393	2.562815	-0.167117	0.311166	0.103411	-36.977785	-74.654676	-62.011807	39.979040326	116.338898886	49.312615
18910	21412749	6.733361	-0.771112	2.525576	-0.145268	0.314289	0.106406	-36.944581	-74.610354	-62.067877	39.979040353	116.338898892	49.312757
18911	21412774	6.737627	-0.739317	2.489774	-0.123437	0.310569	0.101429	-36.907603	-74.566877	-62.124629	39.979040380	116.338898898	49.312881
18912	21412799	6.726715	-0.684240	2.480627	-0.107953	0.318711	0.096580	-36.864140	-74.522873	-62.185821	39.979040407	116.338898904	49.312990
18913	21412824	6.722724	-0.608487	2.464934	-0.095296	0.319430	0.095044	-36.818305	-74.478906	-62.247605	39.979040434	116.338898911	49.313082
18914	21412849	6.698082	-0.547847	2.439819	-0.089324	0.318122	0.093082	-36.771513	-74.435244	-62.309508	39.979040461	116.338898917	49.313157
18915	21412874	6.603153	-0.484427	2.409422	-0.083496	0.324456	0.097643	-36.724122	-74.390450	-62.371179	39.979040488	116.338898923	49.314609
18916	21412899	6.465483	-0.454018	2.381488	-0.077926	0.324294	0.096422	-36.675796	-74.345766	-62.433006	39.979040515	116.338898929	49.314650
18917	21412924	6.376057	-0.420812	2.342979	-0.086240	0.328502	0.089940	-36.625040	-74.301138	-62.498608	39.979040542	116.338898936	49.314672
18918	21412949	6.258994	-0.408330	2.324341	-0.095157	0.326663	0.081569	-36.573029	-74.257421	-62.566855	39.979040569	116.338898942	49.314674
18919	21412974	6.197064	-0.372514	2.313765	-0.098853	0.329404	0.070412	-36.516508	-74.214322	-62.640353	39.979040597	116.338898949	49.314653
18920	21412999	6.154318	-0.365682	2.329728	-0.107844	0.324394	0.069401	-36.462719	-74.171868	-62.712365	39.979040624	116.338898955	49.314615
18921	21413024	6.115689	-0.332785	2.364391	-0.113533	0.314145	0.058301	-36.408641	-74.131520	-62.785540	39.979040651	116.338898962	49.314555
18922	21413049	6.107402	-0.323208	2.380363	-0.114834	0.305557	0.052266	-36.355186	-74.092656	-62.858275	39.979040679	116.338898969	49.314475
18923	21413074	6.075658	-0.347996	2.385594	-0.107124	0.296710	0.046615	-36.301280	-74.055277	-62.930348	39.979040706	116.338898976	49.309922
18924	21413099	6.072635	-0.414316	2.458512	-0.107558	0.278875	0.048953	-36.253943	-74.019739	-62.995663	39.979040734	116.338898982	49.309795
18925	21413124	6.054530	-0.436567	2.520925	-0.106452	0.266016	0.041366	-36.207432	-73.986314	-63.059965	39.979040761	116.338898989	49.309647
18926	21413149	6.110817	-0.491837	2.573967	-0.096460	0.241818	0.034679	-36.164142	-73.956239	-63.119437	39.979040789	116.338898996	49.309478
18927	21413174	6.112009	-0.538795	2.623012	-0.100601	0.219019	0.031523	-36.127049	-73.929056	-63.173085	39.979040816	116.338899003	49.309290
18928	21413199	6.138108	-0.545793	2.650937	-0.093552	0.184983	0.031796	-36.099162	-73.905781	-63.216109	39.979040844	116.338899010	49.309080
18929	21413224	6.157308	-0.552811	2.686831	-0.093150	0.162002	0.033142	-36.078566	-73.885046	-63.251489	39.979040872	116.338899017	49.308851
18930	21413249	6.197121	-0.568136	2.733359	-0.083904	0.131257	0.037141	-36.067280	-73.867531	-63.275802	39.979040900	116.338899025	49.308602
18931	21413274	6.228725	-0.609484	2.747882	-0.071208	0.109617	0.040093	-36.061695	-73.852272	-63.292289	39.979040928	116.338899032	49.308693
18932	21413299	6.239773	-0.668477	2.702463	-0.063366	0.084783	0.041243	-36.062693	-73.839791	-63.300754	39.979040956	116.338899039	49.308405
18935	21413324	6.305692	-0.811648	2.712665	-0.061549	0.061323	0.044610	-36.071603	-73.829743	-63.300711	39.979040984	116.338899046	49.308098
18936	21413349	6.344083	-0.876457	2.749719	-0.053437	0.041366	0.041550	-36.083928	-73.822264	-63.295903	39.979041012	116.338899054	49.307773
18937	21413374	6.349405	-0.939898	2.782773	-0.036088	0.022465	0.038058	-36.097969	-73.811351	-63.373859	39.979040696	116.338899244	49.313599
18938	21413399	6.440268	-0.986752	2.797300	-0.015892	0.009896	0.046086	-36.115854	-73.807130	-63.357661	39.979040724	116.338899252	49.313271
18939	21413424	6.457951	-1.077709	2.828932	-0.003870	-0.002253	0.048210	-36.136387	-73.804133	-63.336913	39.979040752	116.338899260	49.312925
18940	21413449	6.515595	-1.170056	2.865918	0.000788	-0.007254	0.056608	-36.161043	-73.801003	-63.311175	39.979040780	116.338899267	49.312562
18941	21413474	6.540194	-1.258253	2.898884	0.016506	-0.014839	0.055353	-36.185147	-73.798853	-63.283668	39.979040808	116.338899275	49.311530
18942	21413499	6.591007	-1.291498	2.945365	0.021639	-0.019196	0.060615	-36.211870	-73.796758	-63.252667	39.979040836	116.338899283	49.311133
18943	21413524	6.595034	-1.319145	2.981153	0.017208	-0.031269	0.074165	-36.248125	-73.794906	-63.212401	39.979040865	116.338899290	49.310720
18944	21413549	6.610033	-1.414130	2.986195	0.015709	-0.034852	0.091940	-36.292691	-73.791954	-63.163702	39.979040893	116.338899298	49.310291
18945	21413574	6.549398	-1.344099	3.031567	0.022025	-0.041243	0.105189	-36.343460	-73.788604	-63.107602	39.979040921	116.338899306	49.309846
18946	21413599	6.492926	-1.359153	3.010235	0.027992	-0.054586	0.123847	-36.404648	-73.785193	-63.039759	39.979040950	116.338899314	49.309385
18947	21413624	6.510756	-1.407299	3.011408	0.033118	-0.050828	0.137268	-36.469291	-73.780186	-62.967552	39.979040978	116.338899321	49.308907
18948	21413649	6.520426	-1.349611	3.035547	0.044951	-0.047904	0.146787	-36.535104	-73.774008	-62.892360	39.979041007	116.338899329	49.308412
18949	21413674	6.498506	-1.246429	3.047841	0.056157	-0.058538	0.160639	-36.607847	-73.767845	-62.808273	39.979041036	116.338899337	49.310751
18950	21413699	6.537091	-1.213466	3.061298	0.083581	-0.061752	0.171793	-36.681949	-73.761069	-62.718679	39.979041064	116.338899345	49.310226
18951	21413724	6.579667	-1.147805	3.163921	0.103046	-0.059405	0.189228	-36.759370	-73.752496	-62.622720	39.979041093	116.338899352	49.309685
18952	21413749	6.566153	-1.092464	3.088308	0.117812	-0.065225	0.199217	-36.840227	-73.743698	-62.520975	39.979041122	116.338899360	49.309127
18953	21413774	6.637608	-1.110603	3.149503	0.146127	-0.053999	0.209554	-36.917675	-73.732685	-62.418552	39.979041151	116.338899368	49.308555
18954	21413799	6.700633	-1.070003	3.329170	0.170797	-0.054990	0.212704	-36.992995	-73.721476	-62.314657	39.979041181	116.338899376	49.307966
18955	21413824	6.737773	-0.995957	3.395942	0.191544	-0.068931	0.222372	-37.073124	-73.710987	-62.202652	39.979041210	116.338899384	49.307361
18956	21413849	6.783421	-0.929819	3.370893	0.213602	-0.088343	0.226834	-37.157458	-73.702285	-62.082967	39.979041239	116.338899392	49.306742
18957	21413874	6.857870	-0.891312	3.373751	0.224957	-0.098382	0.229830	-37.244203	-73.694420	-61.959074	39.979041269	116.338899400	49.303333
18958	21413899	6.943460	-0.827944	3.348737	0.224829	-0.097673	0.238191	-37.333905	-73.685694	-61.832111	39.979041298	116.338899408	49.302682
18959	21413924	7.066097	-0.752444	3.388969	0.218219	-0.099023	0.247826	-37.428581	-73.676227	-61.700947	39.979041328	116.338899416	49.302018
18960	21413949	7.172185	-0.696206	3.430445	0.204140	-0.092790	0.251924	-37.524874	-73.665632	-61.570192	39.979041357	116.338899424	49.301340
18961	21413974	7.292229	-0.660282	3.392058	0.187987	-0.092863	0.261356	-37.627002	-73.654158	-61.435759	39.979041387	116.338899432	49.300653
18962	21413999	7.405260	-0.653363	3.376202	0.182304	-0.077382	0.265451	-37.726734	-73.640504	-61.304665	39.979041417	116.338899440	49.299951
18963	21414024	7.603651	-0.624575	3.408360	0.175656	-0.066525	0.265209	-37.823885	-73.625578	-61.177242	39.979041447	116.338899449	49.299239
18964	21414049	7.720853	-0.564121	3.415249	0.178246	-0.064427	0.253484	-37.915328	-73.611388	-61.055373	39.979041477	116.338899457	49.298516
18965	21414074	7.754132	-0.486953	3.386236	0.187504	-0.058991	0.249280	-38.002017	-73.596898	-60.937064	39.979041507	116.338899465	49.302059
18966	21414099	7.813472	-0.463415	3.355810	0.206865	-0.055881	0.250691	-38.085364	-73.581885	-60.819343	39.979041537	116.338899474	49.301322
18967	21414124	7.952586	-0.449836	3.391830	0.225092	-0.043513	0.248258	-38.161276	-73.565648	-60.706642	39.979041567	116.338899483	49.300576
18968	21414149	8.093031	-0.487094	3.415749	0.230302	-0.035337	0.236170	-38.229196	-73.549521	-60.601487	39.979041598	116.338899491	49.299822
18969	21414174	8.229433	-0.447359	3.449162	0.244941	-0.026953	0.221704	-38.286830	-73.533701	-60.504861	39.979041628	116.338899500	49.299066
18970	21414199	8.353414	-0.415834	3.478645	0.248829	-0.021660	0.211681	-38.338365	-73.518150	-60.414007	39.979041659	116.338899509	49.298299
18971	21414224	8.491204	-0.363738	3.522740	0.252645	-0.013223	0.199772	-38.382171	-73.502689	-60.330637	39.979041689	116.338899518	49.297526
18972	21414249	8.610931	-0.357125	3.584032	0.260074	-0.007558	0.189464	-38.419191	-73.487493	-60.253228	39.979041720	116.338899527	49.296749
18973	21414274	8.763664	-0.369861	3.665215	0.267349	-0.004192	0.186007	-38.452748	-73.472214	-60.178340	39.979041751	116.338899537	49.293449
18974	21414299	8.889005	-0.324656	3.717282	0.264810	-0.002415	0.181153	-38.484201	-73.457155	-60.106017	39.979041782	116.338899546	49.292663
18975	21414324	9.000409	-0.378589	3.773034	0.267780	-0.002766	0.178857	-38.514375	-73.442330	-60.034581	39.979041812	116.338899556	49.291874
18976	21414349	9.120158	-0.409001	3.807582	0.263511	-0.005941	0.177449	-38.545492	-73.427975	-59.962793	39.979041843	116.338899565	49.291084
18977	21414374	9.283921	-0.465656	3.864663	0.258175	-0.006862	0.174275	-38.576366	-73.413995	-59.892049	39.979041874	116.338899575	49.290299
18978	21414399	9.410480	-0.519561	3.920408	0.243621	-0.009252	0.165747	-38.606755	-73.401034	-59.823983	39.979041906	116.338899585	49.289509
18979	21414424	9.564469	-0.635464	3.997248	0.221844	-0.009786	0.161624	-38.638799	-73.388491	-59.757441	39.979041937	116.338899595	49.288722
18980	21414449	9.718706	-0.645267	4.030551	0.204746	-0.018893	0.160877	-38.675668	-73.377022	-59.688414	39.979041968	116.338899605	49.287937
18981	21414474	9.867293	-0.700575	4.091629	0.188723	-0.025755	0.149766	-38.712662	-73.367302	-59.621648	39.979041999	116.338899615	49.287165
18982	21414499	10.020058	-0.755815	4.131455	0.176810	-0.026123	0.156969	-38.754102	-73.356965	-59.552020	39.979042031	116.338899625	49.286389
18983	21414524	10.152147	-0.809724	4.184527	0.162421	-0.035405	0.161396	-38.801972	-73.347252	-59.477828	39.979042063	116.338899635	49.285619
18984	21414549	10.266315	-0.943198	4.188169	0.144042	-0.042427	0.164340	-38.855609	-73.338038	-59.400361	39.979042094	116.338899646	49.284855
18985	21414574	10.357039	-1.014981	4.231866	0.118968	-0.044678	0.163962	-38.913300	-73.329089	-59.322407	39.979042126	116.338899656	49.284103
18986	21414599	10.468504	-1.088009	4.256965	0.093025	-0.047337	0.165650	-38.976060	-73.320260	-59.243038	39.979042158	116.338899667	49.283355
18987	21414624	10.562042	-1.139087	4.288776	0.055991	-0.047019	0.166304	-39.044196	-73.311311	-59.163590	39.979042190	116.338899678	49.282616
18988	21414649	10.652796	-1.199810	4.328525	0.017975	-0.044072	0.168772	-39.117723	-73.301783	-59.084195	39.979042222	116.338899688	49.281887
18989	21414674	10.736611	-1.260610	4.386909	-0.012204	-0.039329	0.177203	-39.197171	-73.290934	-59.003125	39.979042254	116.338899699	49.283643
18990	21414699	10.849345	-1.299475	4.473278	-0.041907	-0.032134	0.180364	-39.279764	-73.278968	-58.923211	39.979042286	116.338899710	49.282938
18991	21414724	10.960732	-1.345131	4.541010	-0.071715	-0.028571	0.186290	-39.367617	-73.266036	-58.842258	39.979042318	116.338899721	49.282244
18992	21414749	11.019769	-1.392164	4.600741	-0.092159	-0.031558	0.191855	-39.461216	-73.252891	-58.758357	39.979042351	116.338899732	49.281562
18993	21414774	11.118765	-1.409002	4.677889	-0.111009	-0.022595	0.199622	-39.557511	-73.238008	-58.674455	39.979042383	116.338899743	49.280897
18994	21414799	11.198222	-1.478379	4.825330	-0.129063	-0.020842	0.204070	-39.657326	-73.222484	-58.589569	39.979042416	116.338899754	49.280243
18995	21414824	11.243576	-1.448377	4.901221	-0.142764	-0.029379	0.208057	-39.762981	-73.207492	-58.500628	39.979042449	116.338899766	49.279603
18996	21414849	11.313636	-1.417117	4.998488	-0.161994	-0.029011	0.213249	-39.872994	-73.191935	-58.410004	39.979042482	116.338899777	49.278977
18997	21414874	11.378189	-1.374927	5.118335	-0.169016	-0.036998	0.220056	-39.988733	-73.176578	-58.314443	39.979042515	116.338899789	49.276320
18998	21414899	11.383377	-1.375438	5.240709	-0.170515	-0.049335	0.241169	-40.115897	-73.160569	-58.207161	39.979042548	116.338899800	49.275723
18999	21414924	11.440844	-1.385611	5.408249	-0.166495	-0.070497	0.237574	-40.247431	-73.147138	-58.094703	39.979042581	116.338899812	49.275142
19000	21414949	11.510776	-1.380678	5.557260	-0.156233	-0.092538	0.242831	-40.385941	-73.135550	-57.973412	39.979042615	116.338899824	49.274578
19001	21414974	11.522894	-1.345443	5.690370	-0.133008	-0.120778	0.246309	-40.530860	-73.126630	-57.841941	39.979042648	116.338899835	49.274033
19002	21414999	11.569752	-1.235594	5.751936	-0.120349	-0.154181	0.250585	-40.685629	-73.120843	-57.698277	39.979042682	116.338899847	49.273503
19003	21415024	11.620651	-1.180828	5.825269	-0.101611	-0.196154	0.258878	-40.853529	-73.118717	-57.538083	39.979042716	116.338899860	49.272991
19004	21415049	11.715609	-1.139851	5.897297	-0.092015	-0.231119	0.272499	-41.035694	-73.118953	-57.361543	39.979042750	116.338899872	49.272496
19005	21415074	11.747120	-1.166243	5.961047	-0.072326	-0.270189	0.279978	-41.229852	-73.122531	-57.169525	39.979042784	116.338899884	49.272465
19006	21415099	11.792602	-1.131841	5.966556	-0.060722	-0.310442	0.288460	-41.438012	-73.129441	-56.961145	39.979042819	116.338899896	49.272008
19007	21415124	11.835360	-1.133165	5.947938	-0.048204	-0.338925	0.287455	-41.653136	-73.139276	-56.743622	39.979042853	116.338899909	49.271569
19008	21415149	11.916823	-0.980597	5.981717	-0.041115	-0.363778	0.295079	-41.878023	-73.150796	-56.514850	39.979042888	116.338899922	49.271150
19009	21415174	11.994233	-0.901991	5.927511	-0.037007	-0.388746	0.303365	-42.113460	-73.163914	-56.274455	39.979042923	116.338899935	49.270752
19010	21415199	12.079870	-0.887863	5.849197	-0.032806	-0.409235	0.310083	-42.357552	-73.178266	-56.024406	39.979042958	116.338899948	49.270372
19011	21415224	12.158580	-0.931589	5.759981	-0.030217	-0.417182	0.308791	-42.603787	-73.193273	-55.771750	39.979042993	116.338899961	49.270013
19012	21415249	12.291074	-0.928508	5.673651	-0.033191	-0.431420	0.297292	-42.851484	-73.210581	-55.518035	39.979043028	116.338899974	49.269674
19013	21415274	12.440131	-0.962551	5.559233	-0.036514	-0.433263	0.292368	-43.099061	-73.228247	-55.264970	39.979043064	116.338899987	49.265242
19014	21415299	12.662109	-1.057097	5.447379	-0.046946	-0.433189	0.275642	-43.342836	-73.247231	-55.017456	39.979043100	116.338900001	49.264942
19015	21415324	12.813832	-1.183306	5.318049	-0.063732	-0.431624	0.268602	-43.586623	-73.266441	-54.772465	39.979043135	116.338900015	49.264665
19016	21415349	12.969737	-1.364282	5.131362	-0.097790	-0.416765	0.263363	-43.829133	-73.284333	-54.533924	39.979043171	116.338900029	49.264413
19017	21415374	13.142107	-1.579704	4.959167	-0.140537	-0.402220	0.257303	-44.071369	-73.301036	-54.302085	39.979043207	116.338900043	49.264191
19018	21415399	13.267558	-1.802064	4.797620	-0.188343	-0.373745	0.250685	-44.309153	-73.315196	-54.082062	39.979043243	116.338900057	49.263990
19019	21415424	13.377725	-2.035630	4.681220	-0.242148	-0.339496	0.243513	-44.541094	-73.326312	-53.876197	39.979043280	116.338900071	49.263816
19020	21415449	13.496295	-2.241540	4.540922	-0.309154	-0.305146	0.249934	-44.773530	-73.333042	-53.679845	39.979043316	116.338900085	49.263670
19021	21415474	13.521077	-2.494196	4.395187	-0.360176	-0.268695	0.246298	-44.999887	-73.336217	-53.497476	39.979043352	116.338900099	49.260764
19022	21415499	13.565215	-2.680868	4.268223	-0.416130	-0.227240	0.246142	-45.220197	-73.335011	-53.329783	39.979043389	116.338900113	49.260671
19023	21415524	13.562514	-2.852383	4.145259	-0.455140	-0.190951	0.237508	-45.430800	-73.330849	-53.178052	39.979043425	116.338900128	49.260608
19024	21415549	13.526936	-2.948062	3.988075	-0.472751	-0.150238	0.225955	-45.626057	-73.323629	-53.044970	39.979043462	116.338900142	49.260573
19025	21415574	13.527223	-3.034097	3.814893	-0.469393	-0.107823	0.215453	-45.802665	-73.313120	-52.930848	39.979043499	116.338900156	49.260567
19026	21415599	13.584022	-3.054221	3.687174	-0.444356	-0.074632	0.192189	-45.956390	-73.301599	-52.836865	39.979043535	116.338900171	49.260589
19027	21415624	13.602539	-3.003875	3.474562	-0.391086	-0.030877	0.170198	-46.080004	-73.287926	-52.766346	39.979043572	116.338900185	49.260640
19028	21415649	13.684287	-2.972977	3.315142	-0.330955	0.010721	0.144812	-46.172169	-73.272707	-52.719667	39.979043609	116.338900200	49.260719
19029	21415674	13.734317	-2.975066	3.138282	-0.259429	0.052471	0.117885	-46.230737	-73.256114	-52.697364	39.979043646	116.338900214	49.263960
19030	21415699	13.765480	-2.865298	2.855417	-0.184776	0.100257	0.076078	-46.248376	-73.239109	-52.706639	39.979043682	116.338900228	49.264100
19031	21415724	13.843673	-2.656439	2.558245	-0.106397	0.146550	0.043923	-46.228335	-73.220844	-52.743543	39.979043719	116.338900243	49.264269
19032	21415749	13.846023	-2.535556	2.238135	-0.023349	0.203596	0.023353	-46.170180	-73.199043	-52.807837	39.979043756	116.338900257	49.264465
19033	21415774	13.845419	-2.484860	1.957702	0.055479	0.268279	0.000358	-46.071266	-73.173168	-52.902922	39.979043793	116.338900272	49.264687
19035	21415799	13.774528	-2.446668	1.671792	0.130455	0.332046	-0.024115	-45.932203	-73.143413	-53.028748	39.979043829	116.338900286	49.264938
19037	21415824	13.663671	-2.415240	1.377998	0.210699	0.397474	-0.051378	-45.751024	-73.109829	-53.186595	39.979043866	116.338900301	49.265214
19038	21415849	13.445359	-2.370088	1.092045	0.281018	0.463876	-0.081623	-45.528165	-73.072531	-53.377508	39.979043902	116.338900315	49.265515
19039	21415874	13.213192	-2.307156	0.840757	0.355166	0.525342	-0.110890	-45.251539	-73.028444	-53.629334	39.979043587	116.338899973	49.253383
19040	21415899	12.929930	-2.289702	0.606587	0.423554	0.598122	-0.146620	-44.944323	-72.983643	-53.887193	39.979043623	116.338899988	49.253708
19041	21415924	12.654864	-2.229838	0.433675	0.483333	0.655772	-0.174111	-44.601996	-72.935327	-54.172883	39.979043659	116.338900002	49.254053
19042	21415949	12.356291	-2.160442	0.287435	0.533213	0.711911	-0.205579	-44.225586	-72.883898	-54.486832	39.979043694	116.338900017	49.254414
19043	21415974	12.078370	-2.095196	0.151826	0.574125	0.759803	-0.234221	-43.820421	-72.829758	-54.824830	39.979043730	116.338900031	49.254780
19044	21415999	11.819690	-2.010834	0.048182	0.616674	0.802948	-0.266670	-43.386907	-72.773621	-55.186224	39.979043765	116.338900045	49.255168
19045	21416024	11.587092	-2.000695	-0.063669	0.647955	0.831667	-0.294679	-42.933045	-72.716403	-55.564343	39.979043800	116.338900060	49.255568
19046	21416049	11.357330	-1.972672	-0.178061	0.668986	0.864132	-0.335018	-42.455208	-72.658774	-55.964539	39.979043835	116.338900074	49.255978
19047	21416074	11.156211	-1.938243	-0.191455	0.680471	0.879716	-0.369893	-41.962015	-72.601840	-56.379223	39.979043870	116.338900089	49.257602
19048	21416099	11.024244	-1.823791	-0.248332	0.670810	0.892243	-0.391410	-41.462041	-72.544547	-56.802596	39.979043905	116.338900103	49.258028
19049	21416124	10.838466	-1.758848	-0.316088	0.653310	0.888633	-0.412168	-40.961552	-72.488498	-57.229269	39.979043940	116.338900118	49.258459
19050	21416149	10.668842	-1.857827	-0.327188	0.616379	0.889188	-0.427668	-40.463805	-72.432721	-57.658745	39.979043974	116.338900132	49.258896
19051	21416174	10.531257	-1.810831	-0.385649	0.554900	0.873827	-0.445493	-39.976082	-72.379163	-58.087073	39.979044008	116.338900146	49.259330
19052	21416199	10.385212	-1.856095	-0.419175	0.477638	0.853540	-0.443453	-39.508697	-72.326575	-58.505799	39.979044042	116.338900161	49.259772
19053	21416224	10.306461	-1.966199	-0.407668	0.383869	0.828268	-0.438197	-39.066322	-72.275306	-58.912493	39.979044076	116.338900175	49.260217
19054	21416249	10.211020	-2.178203	-0.387102	0.273660	0.795298	-0.435214	-38.652402	-72.226524	-59.305997	39.979044110	116.338900190	49.260663
19055	21416274	10.116898	-2.390269	-0.345364	0.169088	0.754498	-0.426519	-38.269951	-72.180709	-59.682284	39.979044144	116.338900204	49.263363
19056	21416299	10.110740	-2.668637	-0.253257	0.056133	0.702788	-0.411283	-37.925068	-72.138650	-60.036197	39.979044177	116.338900218	49.263814
19057	21416324	10.110099	-2.990894	-0.181122	-0.059687	0.648229	-0.404175	-37.615655	-72.101525	-60.370352	39.979044211	116.338900232	49.264268
19058	21416349	10.143851	-3.313284	-0.081116	-0.160770	0.593656	-0.392731	-37.340706	-72.069085	-60.683568	39.979044244	116.338900246	49.264724
19059	21416374	10.213314	-3.637177	0.049514	-0.256451	0.536466	-0.378417	-37.100794	-72.041494	-60.974415	39.979044277	116.338900260	49.265186
19060	21416399	10.246755	-4.120669	0.170272	-0.343022	0.474037	-0.361829	-36.896464	-72.019269	-61.240933	39.979044310	116.338900274	49.265650
19061	21416424	10.296947	-4.542022	0.242128	-0.418708	0.409640	-0.343774	-36.726891	-72.002610	-61.482336	39.979044343	116.338900287	49.266119
19062	21416449	10.336134	-4.952391	0.313895	-0.486332	0.349855	-0.330618	-36.587717	-71.991496	-61.701979	39.979044375	116.338900301	49.266593
19063	21416474	10.455012	-5.429048	0.441471	-0.527600	0.289400	-0.321910	-36.473566	-71.986446	-61.901531	39.979044408	116.338900313	49.269174
19064	21416499	10.623695	-5.839460	0.523937	-0.553288	0.227980	-0.316961	-36.380964	-71.987944	-62.082298	39.979044441	116.338900326	49.269666
19065	21416524	10.777347	-6.227762	0.586621	-0.580789	0.173233	-0.310844	-36.308717	-71.995159	-62.245800	39.979044473	116.338900339	49.270169
19066	21416549	11.000007	-6.523877	0.624356	-0.592873	0.114873	-0.303908	-36.255775	-72.008469	-62.390815	39.979044505	116.338900351	49.270683
19067	21416574	11.218682	-6.808788	0.628882	-0.597343	0.063846	-0.281456	-36.224620	-72.025741	-62.513582	39.979044537	116.338900362	49.271219
19068	21416599	11.335380	-7.193935	0.582488	-0.597651	0.030814	-0.270307	-36.205952	-72.045869	-62.623258	39.979044570	116.338900374	49.271762
19069	21416624	11.488161	-7.393305	0.530091	-0.582321	0.008988	-0.255080	-36.196081	-72.067224	-62.721365	39.979044602	116.338900385	49.272320
19070	21416649	11.647793	-7.533735	0.536407	-0.555690	-0.004767	-0.237820	-36.192034	-72.088705	-62.809329	39.979044634	116.338900395	49.272895
19071	21416674	11.793908	-7.574882	0.488488	-0.503466	-0.018761	-0.217406	-36.191363	-72.110074	-62.885870	39.979044665	116.338900406	49.276591
19072	21416699	11.912575	-7.536205	0.444895	-0.434569	-0.024818	-0.182289	-36.194913	-72.129176	-62.947602	39.979044697	116.338900415	49.277205
19073	21416724	11.981717	-7.529003	0.357152	-0.354800	-0.018913	-0.163439	-36.192186	-72.146001	-63.003918	39.979044729	116.338900425	49.277839
19074	21416749	11.975157	-7.459833	0.265691	-0.258109	-0.010967	-0.149803	-36.178360	-72.160751	-63.057339	39.979044760	116.338900434	49.278492
19075	21416774	11.931551	-7.354735	0.151682	-0.137857	0.015451	-0.139764	-36.143916	-72.171591	-63.114321	39.979044792	116.338900442	49.279162
19076	21416799	11.884030	-7.014508	0.053042	-0.013213	0.044286	-0.146037	-36.081734	-72.179609	-63.181682	39.979044823	116.338900450	49.279851
19077	21416824	11.895898	-6.520311	0.005521	0.128077	0.083417	-0.136405	-35.992472	-72.182255	-63.256228	39.979044854	116.338900458	49.280558
19078	21416849	11.914579	-6.001493	-0.002074	0.280756	0.112693	-0.128374	-35.876565	-72.180791	-63.335789	39.979044885	116.338900465	49.281281
19079	21416874	11.816153	-5.519710	-0.035097	0.445719	0.147946	-0.117804	-35.731691	-72.174293	-63.420971	39.979044916	116.338900473	49.274296
19080	21416899	11.793449	-5.017453	-0.022790	0.617102	0.181969	-0.108628	-35.556857	-72.162993	-63.511829	39.979044947	116.338900480	49.275041
19081	21416924	11.776259	-4.464377	0.006942	0.788945	0.217015	-0.103085	-35.350560	-72.147051	-63.609889	39.979044978	116.338900486	49.275801
19082	21416949	11.732782	-3.912825	0.072567	0.952327	0.245950	-0.083537	-35.120828	-72.125993	-63.707992	39.979045008	116.338900493	49.276573
19083	21416974	11.639705	-3.432681	0.108660	1.118029	0.270821	-0.060070	-34.869964	-72.099963	-63.803374	39.979045038	116.338900499	49.277354
19084	21416999	11.585001	-3.007724	0.188512	1.283462	0.291158	-0.047158	-34.595497	-72.070352	-63.898673	39.979045069	116.338900506	49.278151
19085	21417024	11.484986	-2.563348	0.219133	1.433852	0.309058	-0.032988	-34.300802	-72.037333	-63.992607	39.979045099	116.338900512	49.278958
19086	21417049	11.377875	-2.175619	0.300139	1.568876	0.323946	-0.005792	-33.993733	-72.000210	-64.079235	39.979045128	116.338900518	49.279775
19087	21417074	11.276142	-1.827855	0.410237	1.680493	0.334494	0.012973	-33.675761	-71.960191	-64.160534	39.979045158	116.338900524	49.281163
19088	21417099	11.185378	-1.521389	0.518904	1.779600	0.338766	0.038947	-33.352951	-71.917467	-64.232010	39.979045188	116.338900530	49.281998
19089	21417124	11.058610	-1.292040	0.649872	1.841803	0.336871	0.060993	-33.030680	-71.873118	-64.293563	39.979045217	116.338900536	49.282839
19090	21417149	10.967656	-1.090173	0.775464	1.882497	0.328969	0.085190	-32.714243	-71.827732	-64.342857	39.979045246	116.338900542	49.283688
19091	21417174	10.860034	-0.910569	0.938244	1.892920	0.316832	0.112808	-32.410177	-71.781600	-64.377571	39.979045276	116.338900549	49.284539
19092	21417199	10.744107	-0.752894	1.106188	1.894287	0.297006	0.141417	-32.121844	-71.735626	-64.395523	39.979045305	116.338900555	49.285399
19093	21417224	10.619714	-0.720516	1.276451	1.877703	0.269850	0.162856	-31.850727	-71.691297	-64.397849	39.979045334	116.338900561	49.286263
19094	21417249	10.471896	-0.656515	1.464099	1.847564	0.241497	0.191227	-31.601421	-71.648283	-64.381748	39.979045363	116.338900568	49.287132
19095	21417274	10.245505	-0.690028	1.610147	1.799554	0.209078	0.213619	-31.375029	-71.607574	-64.348741	39.979045391	116.338900574	49.289546
19096	21417299	10.071277	-0.744486	1.818639	1.736218	0.180726	0.231609	-31.171047	-71.569039	-64.301672	39.979045420	116.338900580	49.290423
19097	21417324	9.873623	-0.833258	2.013706	1.661201	0.145473	0.249320	-30.992427	-71.533569	-64.239184	39.979045449	116.338900587	49.291302
19098	21417349	9.640067	-0.935862	2.228669	1.570306	0.111836	0.259556	-30.838187	-71.501536	-64.164705	39.979045477	116.338900594	49.292181
19099	21417374	9.441499	-0.971323	2.829532	1.449063	0.059615	0.269874	-30.716652	-71.475231	-64.074039	39.979045506	116.338900600	49.293059
19100	21417399	9.143387	-1.011161	3.561972	1.257125	-0.029905	0.280354	-30.646002	-71.459236	-63.958690	39.979045535	116.338900607	49.293939
19101	21417424	8.755778	-1.041345	4.270449	1.040736	-0.156921	0.286892	-30.636378	-71.458443	-63.811661	39.979045564	116.338900614	49.294819
19102	21417449	8.283025	-0.970760	4.922064	0.785600	-0.311379	0.306663	-30.704293	-71.475211	-63.621404	39.979045592	116.338900620	49.295697
19103	21417474	8.040769	-0.899688	5.427509	0.517781	-0.485128	0.319256	-30.853625	-71.512320	-63.385763	39.979045621	116.338900627	49.302627
19104	21417499	7.600839	-1.044300	5.502568	0.232470	-0.660327	0.335676	-31.089541	-71.569488	-63.102001	39.979045651	116.338900634	49.303504
19105	21417524	7.156729	-0.636065	5.318938	0.021987	-0.808054	0.340352	-31.392171	-71.643978	-62.779816	39.979045680	116.338900641	49.304373
19106	21417549	7.168544	-0.357454	5.170963	-0.094681	-0.942600	0.350748	-31.748592	-71.733523	-62.418726	39.979045710	116.338900648	49.305234
19107	21417574	7.157488	-0.581197	5.057209	-0.153378	-1.058869	0.347875	-32.142860	-71.836672	-62.026844	39.979045739	116.338900655	49.306078
19108	21417599	7.157820	-0.748214	4.829233	-0.168990	-1.159725	0.321387	-32.557837	-71.953188	-61.615773	39.979045769	116.338900662	49.306919
19109	21417624	7.035963	-0.825252	4.465839	-0.164226	-1.230331	0.298542	-32.985967	-72.079037	-61.190441	39.979045799	116.338900670	49.307749
19110	21417649	6.966490	-0.909045	4.067953	-0.141315	-1.267587	0.269652	-33.415164	-72.210631	-60.760847	39.979045829	116.338900677	49.308567
19111	21417674	6.935514	-1.027372	3.697873	-0.113097	-1.270877	0.252845	-33.841179	-72.342965	-60.330673	39.979045859	116.338900684	49.306728
19112	21417699	6.882350	-1.154133	3.379593	-0.077061	-1.246809	0.239593	-34.257289	-72.472538	-59.905783	39.979045890	116.338900691	49.307517
19113	21417724	6.911653	-1.262005	3.147859	-0.041088	-1.202339	0.229219	-34.658963	-72.596780	-59.490923	39.979045920	116.338900699	49.308292
19114	21417749	6.833478	-1.413835	2.911931	-0.008190	-1.145293	0.224905	-35.045004	-72.713811	-59.087776	39.979045950	116.338900706	49.309053
19115	21417774	6.773159	-1.601450	2.674545	0.029700	-1.075949	0.221373	-35.410957	-72.822228	-58.700227	39.979045981	116.338900713	49.309797
19116	21417799	6.698967	-1.763093	2.475802	0.068510	-0.994420	0.214692	-35.751318	-72.920995	-58.333856	39.979046011	116.338900721	49.310528
19117	21417824	6.620530	-1.875454	2.361040	0.115320	-0.908767	0.209081	-36.063240	-73.009680	-57.990401	39.979046042	116.338900728	49.311243
19118	21417849	6.513256	-1.976743	2.219651	0.172405	-0.816241	0.201969	-36.341814	-73.087752	-57.673413	39.979046073	116.338900735	49.311942
19119	21417874	6.353533	-2.072625	2.112854	0.225996	-0.720638	0.192939	-36.585028	-73.155163	-57.385493	39.979046103	116.338900742	49.302691
19120	21417899	6.224015	-2.237322	2.005843	0.280540	-0.624493	0.178140	-36.789520	-73.212464	-57.129942	39.979046134	116.338900749	49.303343
19121	21417924	6.102953	-2.254863	1.916587	0.348504	-0.528814	0.158982	-36.951109	-73.260211	-56.909102	39.979046165	116.338900756	49.303975
19122	21417949	5.991489	-2.280669	1.835333	0.418198	-0.429951	0.132738	-37.065306	-73.298759	-56.727371	39.979046196	116.338900763	49.304588
19123	21417974	5.868946	-2.299735	1.791289	0.471658	-0.325827	0.109434	-37.133527	-73.327342	-56.585677	39.979046226	116.338900770	49.305176
19124	21417999	5.791991	-2.267806	1.715542	0.525826	-0.232101	0.089607	-37.159627	-73.346905	-56.479868	39.979046257	116.338900776	49.305746
19125	21418024	5.713441	-2.288393	1.707455	0.560941	-0.135069	0.064600	-37.143181	-73.357551	-56.413225	39.979046288	116.338900783	49.306295
19126	21418049	5.654280	-2.248450	1.698232	0.580169	-0.046076	0.035323	-37.087063	-73.360574	-56.385115	39.979046319	116.338900790	49.306821
19127	21418074	5.592469	-2.178101	1.654546	0.588462	0.039956	0.018601	-36.998514	-73.355215	-56.389619	39.979046350	116.338900796	49.305909
19128	21418099	5.541662	-2.083099	1.641503	0.585590	0.121032	-0.000529	-36.879750	-73.342217	-56.426085	39.979046381	116.338900802	49.306387
19129	21418124	5.490682	-2.028148	1.668245	0.566295	0.194684	-0.013372	-36.737856	-73.321852	-56.489585	39.979046412	116.338900809	49.306842
19130	21418149	5.465945	-2.004711	1.658980	0.535417	0.262064	-0.027245	-36.576123	-73.294881	-56.578421	39.979046442	116.338900815	49.307273
19131	21418174	5.420544	-1.922237	1.676500	0.495756	0.319394	-0.036097	-36.400850	-73.261988	-56.687341	39.979046473	116.338900821	49.307679
19132	21418199	5.369633	-1.861701	1.683313	0.446549	0.368153	-0.050536	-36.213932	-73.224592	-56.815804	39.979046504	116.338900827	49.308061
19133	21418224	5.332559	-1.780467	1.676898	0.392619	0.407800	-0.056654	-36.022019	-73.183003	-56.957580	39.979046535	116.338900833	49.308419
19134	21418249	5.309304	-1.695093	1.659876	0.347511	0.446595	-0.063641	-35.823960	-73.137362	-57.112561	39.979046566	116.338900839	49.308751
19135	21418274	5.288795	-1.634448	1.634793	0.293766	0.471538	-0.069867	-35.625297	-73.089184	-57.276251	39.979046597	116.338900845	49.312396
19137	21418299	5.284781	-1.547751	1.636379	0.241986	0.494567	-0.072746	-35.427691	-73.038399	-57.446638	39.979046628	116.338900851	49.312681
19139	21418324	5.255870	-1.566919	1.615034	0.196950	0.514287	-0.071673	-35.232700	-72.985050	-57.621083	39.979046659	116.338900857	49.312941
19140	21418349	5.244858	-1.568285	1.608362	0.155722	0.530142	-0.078233	-35.037998	-72.930213	-57.801452	39.979046691	116.338900863	49.313174
19141	21418374	5.229803	-1.563986	1.571140	0.124905	0.543848	-0.079808	-34.841149	-72.873330	-57.981155	39.979046911	116.338900560	49.304647
19142	21418399	5.246351	-1.598287	1.541776	0.090280	0.557821	-0.088829	-34.646886	-72.815739	-58.170985	39.979046942	116.338900565	49.304820
19143	21418424	5.200937	-1.629775	1.499091	0.067139	0.566350	-0.100020	-34.450720	-72.757861	-58.366336	39.979046973	116.338900571	49.304966
19144	21418449	5.158275	-1.639308	1.476430	0.050089	0.580052	-0.108458	-34.251540	-72.698845	-58.567464	39.979047004	116.338900576	49.305086
19145	21418474	5.129342	-1.618704	1.492426	0.038590	0.593489	-0.121261	-34.047046	-72.639055	-58.775945	39.979047035	116.338900582	49.308068
19146	21418499	5.134744	-1.640852	1.524308	0.047816	0.606278	-0.129496	-33.836270	-72.578180	-58.989696	39.979047066	116.338900587	49.308138
19147	21418524	5.164846	-1.652139	1.601383	0.063725	0.604072	-0.135463	-33.622985	-72.517807	-59.203760	39.979047097	116.338900593	49.308182
19148	21418549	5.134407	-1.688020	1.625191	0.088631	0.592861	-0.144936	-33.406814	-72.459281	-59.417179	39.979047128	116.338900598	49.308199
19149	21418574	5.135856	-1.668681	1.610648	0.113042	0.590743	-0.156561	-33.184701	-72.401678	-59.633231	39.979047159	116.338900603	49.308191
19150	21418599	5.098667	-1.693386	1.590579	0.145610	0.588362	-0.164095	-32.957090	-72.344694	-59.850227	39.979047191	116.338900608	49.308155
19151	21418624	5.112444	-1.645318	1.620011	0.175086	0.586861	-0.176303	-32.722441	-72.288575	-60.070245	39.979047222	116.338900614	49.308093
19152	21418649	5.159265	-1.611086	1.656055	0.211883	0.575975	-0.188637	-32.481920	-72.234444	-60.290963	39.979047253	116.338900619	49.308005
19153	21418674	5.127563	-1.543812	1.701475	0.247157	0.562689	-0.184323	-32.242531	-72.181310	-60.505253	39.979047284	116.338900624	49.307137
19154	21418699	5.131774	-1.528578	1.670922	0.267130	0.543110	-0.186409	-32.005450	-72.130437	-60.714173	39.979047315	116.338900629	49.306995
19155	21418724	5.140158	-1.514666	1.633742	0.270823	0.528982	-0.189824	-31.771108	-72.081278	-60.919718	39.979047347	116.338900634	49.306826
19156	21418749	5.174712	-1.478814	1.612591	0.284515	0.518268	-0.189015	-31.538784	-72.033107	-61.121138	39.979047378	116.338900639	49.306632
19157	21418774	5.218900	-1.389424	1.627560	0.300360	0.497551	-0.187305	-31.310731	-71.987092	-61.315734	39.979047409	116.338900643	49.306411
19158	21418799	5.219075	-1.353454	1.575792	0.320421	0.482300	-0.192219	-31.082490	-71.943072	-61.507556	39.979047441	116.338900648	49.306164
19159	21418824	5.275759	-1.291424	1.541469	0.341475	0.471833	-0.183307	-30.857956	-71.899446	-61.692354	39.979047472	116.338900653	49.305890
19160	21418849	5.351476	-1.305259	1.561387	0.371754	0.454807	-0.183804	-30.633673	-71.857728	-61.872368	39.979047503	116.338900658	49.305591
19161	21418874	5.434143	-1.342351	1.541369	0.403814	0.432546	-0.186422	-30.409660	-71.818731	-62.047314	39.979047534	116.338900663	49.301000
19162	21418899	5.457762	-1.335194	1.468284	0.439282	0.415909	-0.201395	-30.179425	-71.782655	-62.223494	39.979047566	116.338900667	49.300646
19163	21418924	5.510421	-1.264724	1.390094	0.464428	0.409871	-0.208792	-29.944914	-71.747636	-62.400418	39.979047597	116.338900672	49.300267
19164	21418949	5.571356	-1.168190	1.326607	0.477080	0.413153	-0.212839	-29.707145	-71.712269	-62.578901	39.979047628	116.338900677	49.299862
19165	21418974	5.654030	-1.159971	1.325354	0.475700	0.423893	-0.219452	-29.465591	-71.675799	-62.761615	39.979047660	116.338900681	49.299435
19166	21418999	5.717389	-1.147696	1.354683	0.455663	0.438935	-0.212075	-29.227347	-71.636693	-62.943906	39.979047691	116.338900686	49.298982
19167	21419024	5.790351	-1.121737	1.394718	0.437833	0.456768	-0.208268	-28.990250	-71.594851	-63.127723	39.979047722	116.338900690	49.298505
19168	21419049	5.817685	-1.139938	1.479769	0.411742	0.463444	-0.213568	-28.754456	-71.552300	-63.314150	39.979047753	116.338900695	49.298005
19169	21419074	5.853210	-1.150023	1.596800	0.393178	0.468065	-0.211519	-28.522112	-71.508790	-63.499797	39.979047784	116.338900700	49.293415
19170	21419099	5.854305	-1.201247	1.679079	0.377075	0.466313	-0.207436	-28.294930	-71.464984	-63.682473	39.979047816	116.338900704	49.292865
19171	21419124	5.889779	-1.208657	1.818735	0.348061	0.464502	-0.208350	-28.072876	-71.421242	-63.864170	39.979047847	116.338900709	49.292292
19172	21419149	5.911536	-1.210495	1.937097	0.332753	0.456765	-0.206138	-27.856322	-71.378109	-64.042425	39.979047878	116.338900713	49.291698
19173	21419174	5.909818	-1.256331	2.047327	0.328095	0.442062	-0.202519	-27.645593	-71.336386	-64.215281	39.979047909	116.338900718	49.291084
19174	21419199	5.923288	-1.255417	2.176342	0.321755	0.434434	-0.196658	-27.440306	-71.295044	-64.383392	39.979047941	116.338900722	49.290447
19175	21419224	5.947806	-1.268216	2.280043	0.318328	0.409620	-0.195275	-27.241642	-71.256579	-64.545069	39.979047972	116.338900727	49.289789
19176	21419249	5.948829	-1.307202	2.407602	0.328420	0.391439	-0.194116	-27.046183	-71.220177	-64.701870	39.979048003	116.338900731	49.289111
19177	21419274	6.018742	-1.316013	2.547233	0.337926	0.362402	-0.194329	-26.855481	-71.187329	-64.852246	39.979048035	116.338900735	49.284582
19178	21419299	6.067905	-1.352392	2.704086	0.340849	0.338320	-0.198178	-26.668041	-71.157647	-64.998755	39.979048066	116.338900740	49.283860
19179	21419324	6.092309	-1.418939	2.831528	0.339447	0.301681	-0.191055	-26.490845	-71.132052	-65.134675	39.979048097	116.338900744	49.283118
19180	21419349	6.123628	-1.464797	2.949778	0.349383	0.271045	-0.188246	-26.319390	-71.110074	-65.263043	39.979048129	116.338900748	49.282357
19181	21419374	6.196273	-1.564277	3.054550	0.351548	0.233148	-0.196055	-26.152027	-71.093338	-65.386773	39.979048160	116.338900753	49.281582
19182	21419399	6.292343	-1.610191	3.180809	0.354061	0.198899	-0.193800	-25.991683	-71.080752	-65.502715	39.979048192	116.338900757	49.280786
19183	21419424	6.374629	-1.668492	3.308336	0.349529	0.171429	-0.200471	-25.834664	-71.072019	-65.615833	39.979048224	116.338900761	49.279974
19184	21419449	6.491286	-1.773600	3.439687	0.346906	0.123097	-0.195546	-25.688751	-71.069117	-65.717614	39.979048255	116.338900765	49.279146
19185	21419474	6.616436	-1.849489	3.486092	0.333881	0.086144	-0.197619	-25.550619	-71.071033	-65.813138	39.979048287	116.338900769	49.279564
19186	21419499	6.778737	-1.946111	3.558985	0.317936	0.048324	-0.194503	-25.422711	-71.077577	-65.900268	39.979048319	116.338900773	49.278709
19187	21419524	6.974101	-2.035853	3.629323	0.290015	0.012642	-0.193425	-25.305517	-71.088612	-65.980296	39.979048351	116.338900777	49.277842
19188	21419549	7.173600	-2.128369	3.703593	0.272310	-0.015213	-0.198370	-25.193837	-71.103506	-66.057169	39.979048383	116.338900781	49.276965
19189	21419574	7.308259	-2.249811	3.777769	0.243300	-0.049193	-0.202020	-25.090823	-71.122982	-66.129269	39.979048415	116.338900785	49.276084
19190	21419599	7.503629	-2.334066	3.849432	0.219710	-0.070019	-0.199103	-24.995810	-71.144943	-66.196473	39.979048447	116.338900789	49.275188
19191	21419624	7.705767	-2.524243	3.916712	0.196676	-0.101426	-0.195982	-24.910659	-71.170760	-66.256735	39.979048480	116.338900792	49.274285
19192	21419649	7.895526	-2.725357	3.952080	0.164470	-0.120884	-0.203310	-24.830568	-71.199520	-66.316515	39.979048512	116.338900796	49.273376
19193	21419674	8.075700	-2.874198	4.007555	0.131151	-0.147042	-0.205679	-24.758753	-71.231797	-66.372582	39.979048545	116.338900799	49.272687
19194	21419699	8.244961	-2.950105	4.053971	0.097059	-0.168630	-0.215724	-24.691563	-71.267463	-66.428913	39.979048577	116.338900802	49.271771
19195	21419724	8.467995	-2.997135	4.108468	0.076205	-0.189972	-0.205240	-24.634928	-71.305261	-66.477240	39.979048610	116.338900805	49.270853
19196	21419749	8.733492	-3.166790	4.194482	0.040056	-0.209276	-0.199588	-24.588853	-71.345222	-66.519875	39.979048642	116.338900808	49.269935
19197	21419774	8.974214	-3.359695	4.249845	0.015444	-0.229701	-0.203523	-24.548206	-71.388067	-66.560492	39.979048675	116.338900811	49.269027
19198	21419799	9.175221	-3.478078	4.253572	-0.004859	-0.250228	-0.193731	-24.517712	-71.432997	-66.593454	39.979048708	116.338900814	49.268114
19199	21419824	9.395532	-3.556639	4.278717	-0.027199	-0.264527	-0.194635	-24.492452	-71.479840	-66.624263	39.979048741	116.338900817	49.267205
19200	21419849	9.611708	-3.593960	4.314666	-0.036718	-0.274612	-0.192928	-24.470873	-71.527891	-66.652620	39.979048774	116.338900819	49.266302
19201	21419874	9.805863	-3.606610	4.366586	-0.048752	-0.285761	-0.176987	-24.459110	-71.576447	-66.672432	39.979048807	116.338900821	49.268260
19202	21419899	9.978041	-3.583402	4.409324	-0.064975	-0.294578	-0.171566	-24.453295	-71.625831	-66.688426	39.979048840	116.338900823	49.267376
19203	21419924	10.172322	-3.536809	4.440195	-0.071481	-0.297616	-0.160609	-24.453210	-71.674961	-66.699358	39.979048873	116.338900825	49.266500
19204	21419949	10.351508	-3.457076	4.465855	-0.072324	-0.308375	-0.140364	-24.463140	-71.724294	-66.699867	39.979048907	116.338900827	49.265635
19205	21419974	10.487951	-3.400792	4.495379	-0.071540	-0.306702	-0.127463	-24.477787	-71.772643	-66.695289	39.979048940	116.338900829	49.264787
19206	21419999	10.674036	-3.282645	4.538427	-0.059240	-0.310752	-0.114849	-24.496459	-71.820771	-66.684622	39.979048974	116.338900830	49.263946
19207	21420024	10.770457	-3.196191	4.599982	-0.045583	-0.312853	-0.102794	-24.518428	-71.868455	-66.668430	39.979049007	116.338900832	49.263117
19208	21420049	10.872306	-3.119529	4.697341	-0.031859	-0.317591	-0.081310	-24.547962	-71.915477	-66.642213	39.979049041	116.338900833	49.262303
