PacketCounter	SampleTimeFine	Acc_X	Acc_Y	Acc_Z	Gyr_X	Gyr_Y	Gyr_Z	Roll	Pitch	Yaw	Latitude	Longitude	Altitude
61795	19251274	9.446204	-2.018075	1.992704	0.017753	0.026116	0.002608	-49.960631	-73.684464	-39.591346	39.979034728	116.338885807	51.101358
61796	19251299	9.458559	-2.023631	2.005974	0.021271	0.027469	0.008477	-49.950680	-73.681792	-39.598580	39.979034729	116.338885810	51.101194
61797	19251324	9.443556	-1.989066	1.968861	0.021179	0.030376	0.003886	-49.938212	-73.679354	-39.608452	39.979034730	116.338885813	51.101032
61798	19251349	9.411853	-2.019302	1.956746	0.023890	0.039192	0.004779	-49.922340	-73.676005	-39.621465	39.979034732	116.338885816	51.100869
61799	19251374	9.395333	-2.013749	1.948803	0.022551	0.040770	0.000116	-49.904607	-73.673021	-39.636617	39.979034733	116.338885819	51.100705
61800	19251399	9.432575	-2.005494	1.936876	0.028320	0.039890	0.005318	-49.888021	-73.669546	-39.649713	39.979034735	116.338885822	51.100543
61801	19251424	9.411912	-2.002715	1.936860	0.022198	0.046010	-0.001086	-49.868014	-73.666207	-39.667289	39.979034736	116.338885825	51.100380
61802	19251449	9.400905	-2.010896	1.923539	0.026931	0.044058	0.000148	-49.848454	-73.662911	-39.683692	39.979034737	116.338885828	51.100218
61803	19251474	9.385763	-2.023228	1.914192	0.022008	0.046144	-0.000459	-49.828636	-73.659487	-39.701099	39.979034739	116.338885831	51.102400
61804	19251499	9.371940	-2.024704	1.930110	0.021628	0.048633	-0.003228	-49.807080	-73.656135	-39.720375	39.979034740	116.338885834	51.102239
61805	19251524	9.381645	-2.038350	1.896832	0.016731	0.047493	0.000504	-49.787834	-73.652477	-39.737974	39.979034742	116.338885837	51.102079
61806	19251549	9.353962	-2.068720	1.929957	0.017837	0.049062	-0.000560	-49.767519	-73.648790	-39.756524	39.979034743	116.338885840	51.101918
61807	19251574	9.378826	-2.067267	1.907375	0.015742	0.043021	0.002132	-49.750611	-73.645365	-39.771834	39.979034745	116.338885843	51.101757
61808	19251599	9.385632	-2.100345	1.921875	0.018522	0.045168	-0.002119	-49.731172	-73.642204	-39.789369	39.979034746	116.338885846	51.101597
61809	19251624	9.392502	-2.088023	1.935227	0.011379	0.044812	-0.001109	-49.713214	-73.638965	-39.806427	39.979034748	116.338885849	51.101436
61810	19251649	9.411748	-2.110082	1.937852	0.012347	0.044124	-0.000530	-49.695562	-73.635725	-39.823020	39.979034749	116.338885852	51.101275
61811	19251674	9.418648	-2.115562	1.935131	0.017862	0.046676	0.004852	-49.677877	-73.631659	-39.838826	39.979034751	116.338885855	51.100822
61812	19251699	9.392422	-2.123843	1.944445	0.017245	0.042640	0.005977	-49.662144	-73.627843	-39.852690	39.979034752	116.338885858	51.100662
61813	19251724	9.406151	-2.139009	1.959011	0.014248	0.041102	0.008656	-49.648264	-73.623876	-39.865070	39.979034754	116.338885861	51.100501
61814	19251749	9.411678	-2.125250	1.959088	0.014073	0.043689	0.007901	-49.633216	-73.619751	-39.878693	39.979034755	116.338885864	51.100342
61815	19251774	9.396450	-2.125395	1.985667	0.017865	0.045033	0.001332	-49.615060	-73.616216	-39.894990	39.979034757	116.338885867	51.100182
61816	19251799	9.408827	-2.137783	1.989610	0.022285	0.038569	0.001371	-49.598689	-73.613276	-39.908768	39.979034759	116.338885870	51.100023
61817	19251824	9.415763	-2.111636	1.993681	0.027156	0.040109	0.003044	-49.581582	-73.610010	-39.922585	39.979034760	116.338885873	51.099863
61818	19251849	9.399162	-2.152942	1.992193	0.020371	0.038737	0.000101	-49.565033	-73.607190	-39.936835	39.979034762	116.338885876	51.099705
61819	19251874	9.397846	-2.119867	1.985663	0.023991	0.031605	0.001895	-49.551178	-73.604837	-39.947734	39.979034763	116.338885879	51.102798
61820	19251899	9.366173	-2.108847	1.987033	0.026286	0.036795	0.005990	-49.536370	-73.601554	-39.959285	39.979034765	116.338885882	51.102643
61821	19251924	9.361939	-2.115854	2.017600	0.026834	0.037794	0.004987	-49.520803	-73.598287	-39.971547	39.979034767	116.338885885	51.102487
61822	19251949	9.382599	-2.103523	2.034899	0.027522	0.037251	0.002672	-49.504611	-73.595321	-39.984356	39.979034768	116.338885888	51.102332
61823	19251974	9.368876	-2.067760	2.024403	0.026403	0.029548	0.004491	-49.492010	-73.592873	-39.993591	39.979034770	116.338885891	51.102176
61824	19251999	9.356505	-2.069046	2.016405	0.027350	0.021811	0.004001	-49.481981	-73.591198	-40.000001	39.979034771	116.338885894	51.102021
61825	19252024	9.363392	-2.074548	2.015056	0.031386	0.020702	0.006483	-49.472571	-73.589356	-40.005165	39.979034773	116.338885897	51.101866
61826	19252049	9.344134	-2.047024	2.016489	0.028288	0.022765	0.004384	-49.462180	-73.587550	-40.011813	39.979034775	116.338885900	51.101710
61827	19252074	9.334522	-2.038744	2.007187	0.032310	0.014937	0.006683	-49.454834	-73.586222	-40.014687	39.979034777	116.338885903	51.098603
61828	19252099	9.323520	-2.022224	2.011226	0.034600	0.016926	0.004311	-49.445676	-73.584966	-40.019108	39.979034778	116.338885906	51.098445
61829	19252124	9.306986	-2.026330	2.001891	0.033394	0.014552	0.006564	-49.438281	-73.583687	-40.021871	39.979034780	116.338885909	51.098286
61830	19252149	9.318071	-2.013893	1.988621	0.032465	0.008975	-0.001667	-49.430477	-73.583823	-40.025199	39.979034782	116.338885912	51.098126
61831	19252174	9.308464	-1.987724	1.987406	0.033259	0.013110	0.003424	-49.422642	-73.583019	-40.028441	39.979034783	116.338885915	51.097966
61832	19252199	9.313963	-2.009721	1.978010	0.036484	0.012113	0.000685	-49.413848	-73.582606	-40.032201	39.979034785	116.338885918	51.097805
61833	19252224	9.315356	-2.002829	1.976706	0.037158	0.014156	0.001757	-49.404543	-73.581886	-40.036394	39.979034787	116.338885921	51.097644
61834	19252249	9.315334	-2.002888	1.988661	0.033413	0.016829	-0.001606	-49.393723	-73.581282	-40.042724	39.979034789	116.338885924	51.097483
61835	19252274	9.307017	-2.016679	1.999252	0.029221	0.013089	-0.002137	-49.384718	-73.581085	-40.047789	39.979034791	116.338885927	51.094448
61836	19252299	9.309715	-2.031891	2.008537	0.037128	0.014213	-0.002328	-49.374105	-73.580803	-40.053350	39.979034792	116.338885930	51.094283
61837	19252324	9.333142	-2.030512	2.012551	0.033955	0.011520	-0.000653	-49.365470	-73.580590	-40.057322	39.979034794	116.338885933	51.094118
61838	19252349	9.330383	-2.033264	2.012512	0.038484	0.021017	-0.000876	-49.352613	-73.579515	-40.065019	39.979034796	116.338885936	51.093952
61839	19252374	9.342703	-2.051215	2.033759	0.046863	0.015786	-0.002693	-49.339911	-73.579125	-40.071304	39.979034798	116.338885939	51.093787
61840	19252399	9.322011	-2.055373	2.039059	0.043604	0.011542	-0.006609	-49.328000	-73.579556	-40.077250	39.979034800	116.338885942	51.093621
61841	19252424	9.335867	-2.038778	2.019159	0.043789	0.012776	-0.004722	-49.316205	-73.579667	-40.083048	39.979034802	116.338885945	51.093455
61842	19252449	9.353808	-2.038747	2.013854	0.052179	0.014457	-0.006101	-49.302151	-73.579770	-40.089947	39.979034803	116.338885948	51.093288
61843	19252474	9.391028	-2.055226	1.995184	0.056964	0.010517	-0.010394	-49.287503	-73.580707	-40.096752	39.979034805	116.338885951	51.097443
61844	19252499	9.345538	-2.064846	1.995162	0.057586	0.015661	-0.001664	-49.273638	-73.580215	-40.102648	39.979034807	116.338885954	51.097281
61845	19252524	9.344223	-2.055128	1.973883	0.064190	0.016791	-0.005695	-49.257133	-73.580054	-40.110310	39.979034809	116.338885957	51.097119
61846	19252549	9.329050	-2.045550	1.989857	0.070739	0.014919	-0.007212	-49.239898	-73.580233	-40.117755	39.979034811	116.338885961	51.096956
61847	19252574	9.346997	-2.023503	1.983318	0.074731	0.015761	-0.005803	-49.222228	-73.580179	-40.125056	39.979034813	116.338885964	51.096793
61848	19252599	9.367780	-2.011002	1.948784	0.079274	0.016890	-0.006327	-49.203325	-73.580076	-40.132965	39.979034815	116.338885967	51.096629
61849	19252624	9.362368	-1.973771	1.934260	0.082430	0.018238	-0.004986	-49.183901	-73.579700	-40.140946	39.979034817	116.338885970	51.096466
61850	19252649	9.366567	-1.955864	1.915702	0.082077	0.019221	-0.006875	-49.163566	-73.579437	-40.149929	39.979034819	116.338885973	51.096302
61851	19252674	9.363850	-1.931065	1.913140	0.085126	0.023025	-0.006540	-49.141504	-73.578779	-40.160259	39.979034821	116.338885976	51.094158
61852	19252699	9.372084	-1.931099	1.927767	0.083484	0.023299	-0.005423	-49.119932	-73.577974	-40.170322	39.979034823	116.338885979	51.093992
61853	19252724	9.362378	-1.924311	1.951739	0.076661	0.025190	-0.006543	-49.098287	-73.577112	-40.181479	39.979034825	116.338885982	51.093826
61854	19252749	9.363794	-1.907802	1.945125	0.075245	0.022253	-0.000146	-49.079962	-73.575832	-40.189388	39.979034827	116.338885985	51.093659
61855	19252774	9.402423	-1.891259	1.943866	0.068168	0.018062	-0.005347	-49.062536	-73.575507	-40.197416	39.979034829	116.338885989	51.093492
61856	19252799	9.405219	-1.877461	1.931937	0.068727	0.016789	-0.001761	-49.046639	-73.574913	-40.203767	39.979034831	116.338885992	51.093325
61857	19252824	9.431453	-1.866443	1.918705	0.064266	0.010715	-0.001474	-49.033701	-73.574858	-40.207698	39.979034833	116.338885995	51.093158
61858	19252849	9.401088	-1.896657	1.923910	0.064486	0.012107	-0.001857	-49.020100	-73.574713	-40.212289	39.979034835	116.338885998	51.092990
61859	19252874	9.417680	-1.873265	1.910692	0.060505	0.012246	-0.001006	-49.007289	-73.574463	-40.216649	39.979034837	116.338886001	51.095394
61860	19252899	9.425929	-1.874640	1.912035	0.058329	0.015306	-0.004163	-48.992661	-73.574267	-40.223229	39.979034839	116.338886005	51.095229
61861	19252924	9.441082	-1.880193	1.913337	0.052947	0.014019	-0.005902	-48.978722	-73.574378	-40.229895	39.979034841	116.338886008	51.095064
61862	19252949	9.431448	-1.865037	1.917379	0.044860	0.014809	-0.000879	-48.967254	-73.573873	-40.235192	39.979034843	116.338886011	51.094899
61863	19252974	9.431428	-1.900775	1.909298	0.039849	0.019275	0.000589	-48.955337	-73.572788	-40.241706	39.979034845	116.338886014	51.094734
61864	19252999	9.450680	-1.921442	1.917208	0.034098	0.019331	-0.004423	-48.942624	-73.572240	-40.249909	39.979034847	116.338886018	51.094570
61865	19253024	9.410630	-1.925674	1.943768	0.025310	0.022787	-0.002611	-48.930483	-73.571169	-40.258827	39.979034849	116.338886021	51.094405
61866	19253049	9.413280	-1.973920	1.959587	0.024064	0.022365	-0.001174	-48.919135	-73.569983	-40.267104	39.979034851	116.338886024	51.094240
61867	19253074	9.389703	-2.009809	1.999331	0.027005	0.025773	-0.005932	-48.904601	-73.568989	-40.278265	39.979034853	116.338886028	51.094828
61868	19253099	9.407556	-2.026393	2.011255	0.024793	0.025393	-0.006199	-48.890439	-73.568059	-40.289367	39.979034855	116.338886031	51.094664
61869	19253124	9.458481	-2.048474	2.029830	0.027321	0.029899	-0.005738	-48.874415	-73.566654	-40.302034	39.979034857	116.338886034	51.094501
61870	19253149	9.450111	-2.077466	2.048366	0.038908	0.028206	-0.003700	-48.858004	-73.565188	-40.313374	39.979034859	116.338886038	51.094338
61871	19253174	9.443134	-2.088580	2.074939	0.032541	0.030652	-0.009720	-48.839690	-73.564139	-40.327649	39.979034861	116.338886041	51.094176
61872	19253199	9.443057	-2.132631	2.086713	0.031412	0.028969	-0.004074	-48.823959	-73.562639	-40.339399	39.979034864	116.338886044	51.094014
61873	19253224	9.451244	-2.139620	2.113321	0.039069	0.027685	-0.008598	-48.806157	-73.561747	-40.352166	39.979034866	116.338886048	51.093853
61876	19253249	9.427757	-2.147953	2.134560	0.037275	0.026265	-0.006351	-48.789850	-73.560746	-40.363641	39.979034868	116.338886051	51.093693
61877	19253274	9.415275	-2.141206	2.173145	0.039506	0.023021	-0.018898	-48.762249	-73.561534	-40.377777	39.979034455	116.338885893	51.074424
61878	19253299	9.413890	-2.101421	2.191904	0.045729	0.021963	-0.013192	-48.744114	-73.561674	-40.389896	39.979034457	116.338885896	51.074260
61879	19253324	9.460752	-2.065698	2.214646	0.049852	0.019330	-0.011207	-48.726985	-73.561847	-40.400350	39.979034459	116.338885899	51.074097
61880	19253349	9.416650	-2.029982	2.233379	0.057057	0.012447	-0.013095	-48.710730	-73.562873	-40.408817	39.979034461	116.338885902	51.073935
61881	19253374	9.419384	-2.041022	2.242619	0.069882	0.009638	-0.009347	-48.694861	-73.563760	-40.414966	39.979034463	116.338885905	51.073773
61882	19253399	9.365745	-2.016104	2.213451	0.071773	0.004633	-0.012973	-48.679384	-73.565511	-40.420424	39.979034465	116.338885909	51.073611
61883	19253424	9.363076	-2.002268	2.185531	0.071453	0.012386	-0.019580	-48.659004	-73.567238	-40.431041	39.979034467	116.338885912	51.073449
61884	19253449	9.342578	-1.963537	2.141776	0.082205	0.009492	-0.021066	-48.637659	-73.569398	-40.441059	39.979034470	116.338885915	51.073288
61885	19253474	9.348145	-1.941509	2.131221	0.085814	0.015062	-0.025252	-48.612418	-73.571479	-40.454599	39.979034472	116.338885918	51.074802
61886	19253499	9.357935	-1.909684	2.086116	0.086212	0.021259	-0.018089	-48.587159	-73.572201	-40.468099	39.979034474	116.338885922	51.074641
61887	19253524	9.333151	-1.900041	2.084816	0.083722	0.025892	-0.025716	-48.558115	-73.573302	-40.485917	39.979034476	116.338885925	51.074481
61888	19253549	9.341369	-1.930333	2.087376	0.084937	0.036344	-0.025906	-48.525028	-73.573430	-40.507768	39.979034479	116.338885928	51.074320
61889	19253574	9.346881	-1.950901	2.072648	0.079873	0.040305	-0.024186	-48.491778	-73.572993	-40.530546	39.979034481	116.338885931	51.074159
61890	19253599	9.345490	-1.977034	2.067262	0.083688	0.047605	-0.023158	-48.455660	-73.571750	-40.555744	39.979034483	116.338885935	51.073997
61891	19253624	9.324767	-1.981216	2.084507	0.081682	0.051263	-0.028329	-48.416837	-73.570707	-40.584061	39.979034485	116.338885938	51.073836
61892	19253649	9.308233	-1.978493	2.084529	0.075075	0.058314	-0.023612	-48.377927	-73.568484	-40.613457	39.979034488	116.338885941	51.073674
61893	19253674	9.304058	-1.979930	2.100473	0.075743	0.058113	-0.020279	-48.340078	-73.565918	-40.641646	39.979034490	116.338885944	51.071637
61894	19253699	9.332916	-2.002030	2.120363	0.067361	0.061060	-0.023048	-48.301478	-73.563361	-40.671872	39.979034492	116.338885948	51.071472
61895	19253724	9.354881	-2.028246	2.138897	0.064124	0.058626	-0.020935	-48.264917	-73.560806	-40.700455	39.979034495	116.338885951	51.071308
61896	19253749	9.375471	-2.043484	2.164132	0.055295	0.051591	-0.022000	-48.231832	-73.559030	-40.726732	39.979034497	116.338885954	51.071144
61897	19253774	9.408535	-2.029741	2.173491	0.048888	0.049883	-0.018594	-48.201392	-73.557049	-40.751209	39.979034499	116.338885958	51.070981
61898	19253799	9.433322	-2.025668	2.180171	0.043754	0.043660	-0.015801	-48.174847	-73.555361	-40.772391	39.979034502	116.338885961	51.070817
61899	19253824	9.447117	-2.022915	2.178872	0.035401	0.037862	-0.010645	-48.153269	-73.553674	-40.789643	39.979034504	116.338885964	51.070654
61900	19253849	9.455472	-2.010433	2.152288	0.030278	0.034417	-0.008421	-48.134393	-73.552077	-40.804842	39.979034507	116.338885967	51.070492
61901	19253874	9.456826	-2.021445	2.160232	0.032967	0.023578	-0.004435	-48.120343	-73.551090	-40.814610	39.979034509	116.338885971	51.068516
61902	19253899	9.461003	-2.000771	2.148361	0.018887	0.012706	-0.003970	-48.112387	-73.551093	-40.820124	39.979034512	116.338885974	51.068354
61903	19253924	9.463780	-2.014511	2.132363	0.013189	0.006874	0.007427	-48.111045	-73.550438	-40.819594	39.979034514	116.338885977	51.068191
61904	19253949	9.455514	-2.025461	2.130972	-0.001815	0.004850	0.006619	-48.112322	-73.550063	-40.818574	39.979034517	116.338885981	51.068030
61905	19253974	9.468023	-1.977247	2.108547	-0.008313	-0.000055	0.008263	-48.116834	-73.549982	-40.815151	39.979034519	116.338885984	51.067869
61906	19253999	9.445997	-1.964863	2.111192	-0.026843	-0.006378	0.015855	-48.128741	-73.549695	-40.806785	39.979034522	116.338885987	51.067708
61907	19254024	9.426794	-1.949620	2.083342	-0.044627	-0.011073	0.017914	-48.145560	-73.549637	-40.795954	39.979034524	116.338885991	51.067548
61908	19254049	9.443412	-1.920654	2.067459	-0.061531	-0.012176	0.018977	-48.165541	-73.549570	-40.784350	39.979034527	116.338885994	51.067389
61909	19254074	9.425596	-1.902638	2.038272	-0.069506	-0.015154	0.022244	-48.188800	-73.549437	-40.770520	39.979034529	116.338885997	51.065474
61910	19254099	9.382896	-1.882000	2.042307	-0.080331	-0.018312	0.018203	-48.213443	-73.550036	-40.756863	39.979034532	116.338886001	51.065313
61911	19254124	9.376086	-1.844805	2.033125	-0.097050	-0.014578	0.020643	-48.239920	-73.550016	-40.743791	39.979034534	116.338886004	51.065152
61912	19254149	9.396755	-1.832476	2.041144	-0.098519	-0.018792	0.018437	-48.267420	-73.550632	-40.729872	39.979034537	116.338886008	51.064990
61913	19254174	9.413287	-1.837972	2.035805	-0.099501	-0.017878	0.023833	-48.296474	-73.550582	-40.714479	39.979034540	116.338886011	51.064829
61914	19254199	9.377351	-1.895759	2.044928	-0.102624	-0.019933	0.018090	-48.324866	-73.551340	-40.700242	39.979034542	116.338886015	51.064667
61915	19254224	9.371832	-1.904006	2.046236	-0.096978	-0.016195	0.018571	-48.351252	-73.551689	-40.687255	39.979034545	116.338886018	51.064505
61916	19254249	9.366248	-1.938476	2.054085	-0.095668	-0.018737	0.018395	-48.378316	-73.552296	-40.673365	39.979034547	116.338886021	51.064344
61917	19254274	9.391012	-1.961881	2.056672	-0.094111	-0.020824	0.018473	-48.405941	-73.553092	-40.658657	39.979034550	116.338886025	51.066978
61918	19254299	9.377187	-1.972924	2.071260	-0.089872	-0.024915	0.016625	-48.433850	-73.554473	-40.643019	39.979034553	116.338886028	51.066819
61919	19254324	9.377157	-2.023768	2.047161	-0.080171	-0.019537	0.012991	-48.457251	-73.555730	-40.630634	39.979034555	116.338886032	51.066660
61920	19254349	9.381295	-2.019642	2.053841	-0.073037	-0.023216	0.009279	-48.479775	-73.557733	-40.618098	39.979034558	116.338886035	51.066501
61921	19254374	9.395035	-2.058162	2.045704	-0.061004	-0.023060	0.008182	-48.500169	-73.559838	-40.605985	39.979034561	116.338886039	51.066342
61922	19254399	9.360529	-2.084334	2.053611	-0.064380	-0.021456	0.009409	-48.520863	-73.561658	-40.594065	39.979034563	116.338886042	51.066183
61923	19254424	9.332903	-2.105019	2.065502	-0.055650	-0.019279	0.011486	-48.540185	-73.563047	-40.582270	39.979034566	116.338886046	51.066024
61924	19254449	9.321899	-2.132437	2.041442	-0.046161	-0.018544	0.010613	-48.557603	-73.564460	-40.571045	39.979034569	116.338886049	51.065865
61925	19254474	9.330070	-2.146325	2.066683	-0.042737	-0.016789	0.013845	-48.574931	-73.565357	-40.559400	39.979034572	116.338886053	51.070287
61926	19254499	9.314877	-2.179327	2.067889	-0.034808	-0.015278	0.009882	-48.589303	-73.566537	-40.549655	39.979034574	116.338886056	51.070132
61927	19254524	9.323111	-2.198580	2.065188	-0.036375	-0.012352	0.010625	-48.603073	-73.567358	-40.540771	39.979034577	116.338886060	51.069977
61928	19254549	9.324407	-2.250938	2.074269	-0.024022	-0.020532	0.015000	-48.619460	-73.568484	-40.527313	39.979034580	116.338886063	51.069822
61929	19254574	9.310676	-2.248092	2.055677	-0.013375	-0.028881	0.013079	-48.636752	-73.570605	-40.511323	39.979034583	116.338886067	51.069667
61930	19254599	9.307849	-2.266048	2.071591	-0.006261	-0.023432	0.017467	-48.652450	-73.571738	-40.495932	39.979034586	116.338886070	51.069512
61931	19254624	9.292762	-2.252193	2.054354	0.003818	-0.020757	0.015344	-48.665049	-73.572844	-40.482267	39.979034588	116.338886073	51.069357
61932	19254649	9.298287	-2.253571	2.050317	0.013547	-0.032456	0.017630	-48.681259	-73.574811	-40.463385	39.979034591	116.338886077	51.069202
61933	19254674	9.276222	-2.261799	2.044979	0.011238	-0.036371	0.014283	-48.698158	-73.577506	-40.444128	39.979034594	116.338886080	51.072668
61934	19254699	9.251447	-2.243935	2.047694	0.016163	-0.039451	0.020480	-48.717471	-73.579824	-40.421620	39.979034597	116.338886084	51.072516
61935	19254724	9.263895	-2.235585	2.030439	0.019100	-0.044656	0.020067	-48.738139	-73.582675	-40.397262	39.979034600	116.338886087	51.072363
61936	19254749	9.239130	-2.224568	2.023797	0.014311	-0.043811	0.025117	-48.760811	-73.584901	-40.371530	39.979034603	116.338886090	51.072210
61937	19254774	9.261240	-2.192882	2.015927	0.014268	-0.055636	0.026573	-48.788288	-73.588082	-40.340795	39.979034606	116.338886094	51.072056
61938	19254799	9.233733	-2.162575	2.012035	0.010113	-0.058916	0.023338	-48.816535	-73.591918	-40.309878	39.979034609	116.338886097	51.071902
61939	19254824	9.277956	-2.129463	1.984215	0.004107	-0.065167	0.027949	-48.849424	-73.595841	-40.275021	39.979034612	116.338886100	51.071747
61940	19254849	9.251818	-2.085460	1.991028	0.006093	-0.074506	0.026651	-48.885052	-73.600778	-40.237012	39.979034615	116.338886103	51.071592
61941	19254874	9.254685	-2.049572	1.968513	0.002833	-0.077061	0.033161	-48.924190	-73.605246	-40.195832	39.979034617	116.338886107	51.071379
61942	19254899	9.274028	-2.026157	1.959314	0.003371	-0.080794	0.029401	-48.963442	-73.610463	-40.154454	39.979034620	116.338886110	51.071222
61943	19254924	9.311299	-1.997254	1.951469	0.004423	-0.080721	0.033996	-49.004010	-73.615169	-40.111548	39.979034623	116.338886113	51.071064
61944	19254949	9.334756	-1.993071	1.942147	0.003146	-0.083296	0.035311	-49.046153	-73.619966	-40.067192	39.979034626	116.338886117	51.070906
61945	19254974	9.348586	-1.965544	1.935626	-0.003561	-0.091520	0.035766	-49.092457	-73.625475	-40.019502	39.979034629	116.338886120	51.070748
61946	19254999	9.347316	-1.928343	1.915770	-0.008918	-0.091060	0.040123	-49.140779	-73.630459	-39.970509	39.979034632	116.338886123	51.070590
61947	19255024	9.381762	-1.931051	1.913145	-0.016688	-0.092362	0.041132	-49.191047	-73.635443	-39.920650	39.979034635	116.338886127	51.070431
61948	19255049	9.399634	-1.931131	1.926470	-0.015771	-0.093617	0.041896	-49.241921	-73.640449	-39.870024	39.979034638	116.338886130	51.070271
61949	19255074	9.421725	-1.899484	1.929227	-0.020064	-0.093320	0.044250	-49.294080	-73.645159	-39.818700	39.979034641	116.338886133	51.067339
61950	19255099	9.465769	-1.895484	1.955845	-0.028954	-0.092794	0.036517	-49.344888	-73.650647	-39.770113	39.979034644	116.338886137	51.067178
61951	19255124	9.489024	-1.925905	2.010291	-0.030267	-0.100492	0.030421	-49.396834	-73.657504	-39.720538	39.979034647	116.338886140	51.067016
61952	19255149	9.469902	-1.837793	1.988019	-0.029327	-0.102411	0.025338	-49.447785	-73.665080	-39.671860	39.979034650	116.338886144	51.066855
61953	19255174	9.467175	-1.774579	2.012136	-0.029735	-0.092450	0.033934	-49.497866	-73.670780	-39.624151	39.979034654	116.338886147	51.066694
61954	19255199	9.486409	-1.815870	2.010665	-0.033876	-0.095774	0.039747	-49.551657	-73.676144	-39.573197	39.979034657	116.338886151	51.066533
61955	19255224	9.515235	-1.873688	2.025134	-0.035487	-0.089645	0.034390	-49.601730	-73.681510	-39.526358	39.979034660	116.338886154	51.066373
61956	19255249	9.524791	-1.888937	2.051684	-0.034389	-0.084555	0.031695	-49.648925	-73.686687	-39.482356	39.979034663	116.338886158	51.066214
61957	19255274	9.546870	-1.891666	2.046367	-0.031263	-0.081503	0.032660	-49.694867	-73.691466	-39.439193	39.979034666	116.338886161	51.067957
61958	19255299	9.546823	-1.873893	2.069038	-0.032189	-0.070152	0.021023	-49.733042	-73.696455	-39.404262	39.979034669	116.338886165	51.067801
61959	19255324	9.545462	-1.847769	2.079746	-0.030953	-0.066687	0.023855	-49.770663	-73.700808	-39.369725	39.979034672	116.338886168	51.067646
61960	19255349	9.535776	-1.835458	2.098447	-0.028850	-0.058481	0.026062	-49.805628	-73.704155	-39.337642	39.979034675	116.338886172	51.067492
61961	19255374	9.566088	-1.850587	2.097058	-0.028056	-0.053883	0.024244	-49.838196	-73.707270	-39.307938	39.979034678	116.338886175	51.067339
61962	19255399	9.564581	-1.871372	2.134235	-0.033791	-0.047646	0.025450	-49.869641	-73.709672	-39.280260	39.979034682	116.338886179	51.067187
61963	19255424	9.546675	-1.848026	2.140950	-0.029376	-0.041854	0.019513	-49.896417	-73.712187	-39.256790	39.979034685	116.338886183	51.067036
61964	19255449	9.550750	-1.867332	2.155520	-0.030620	-0.028822	0.018235	-49.918085	-73.713636	-39.238825	39.979034688	116.338886186	51.066885
61965	19255474	9.532907	-1.815060	2.160980	-0.028189	-0.023527	0.016427	-49.936851	-73.714794	-39.223521	39.979034691	116.338886190	51.068631
61966	19255499	9.517744	-1.815029	2.159681	-0.027551	-0.015657	0.017492	-49.952910	-73.715108	-39.210942	39.979034695	116.338886194	51.068484
61967	19255524	9.512215	-1.812327	2.170306	-0.026926	-0.011428	0.024469	-49.969493	-73.714266	-39.197725	39.979034698	116.338886197	51.068338
61968	19255549	9.499696	-1.844081	2.196806	-0.028351	0.000910	0.023250	-49.981262	-73.712420	-39.189735	39.979034701	116.338886201	51.068193
61969	19255574	9.459716	-1.872925	2.190034	-0.036554	0.004543	0.020105	-49.991848	-73.710585	-39.184201	39.979034705	116.338886205	51.068048
61970	19255599	9.436220	-1.874406	2.215290	-0.036846	0.008337	0.015698	-49.999662	-73.708883	-39.181600	39.979034708	116.338886208	51.067903
61971	19255624	9.394824	-1.882724	2.228527	-0.041910	0.015900	0.016783	-50.005702	-73.706366	-39.181601	39.979034711	116.338886212	51.067759
61972	19255649	9.398955	-1.910191	2.219107	-0.038704	0.019187	0.012596	-50.008730	-73.704006	-39.184263	39.979034715	116.338886216	51.067615
61973	19255674	9.378261	-1.933575	2.213715	-0.039417	0.022705	0.010574	-50.009902	-73.701543	-39.188963	39.979034718	116.338886220	51.069360
61974	19255699	9.382396	-1.933568	2.215042	-0.035305	0.030355	0.009911	-50.007407	-73.698450	-39.196872	39.979034722	116.338886224	51.069218
61975	19255724	9.385253	-1.926556	2.177838	-0.029300	0.030184	0.007634	-50.003402	-73.695622	-39.205458	39.979034725	116.338886228	51.069076
61978	19255749	9.392127	-1.945767	2.172447	-0.019045	0.031923	0.002435	-49.995641	-73.693204	-39.216427	39.979034729	116.338886231	51.068935
61979	19255774	9.412779	-1.977393	2.160411	-0.010626	0.035039	-0.000140	-49.969211	-73.691296	-39.223786	39.979034201	116.338885915	51.050640
61980	19255799	9.436247	-1.970470	2.149776	-0.004269	0.040580	-0.001980	-49.954706	-73.688563	-39.239576	39.979034205	116.338885918	51.050497
61981	19255824	9.428009	-1.985530	2.121774	0.004044	0.039922	-0.002795	-49.939006	-73.685978	-39.255372	39.979034208	116.338885922	51.050355
61982	19255849	9.414319	-1.970283	2.099233	0.014308	0.042526	-0.005603	-49.919981	-73.683460	-39.273100	39.979034211	116.338885926	51.050212
61983	19255874	9.411601	-1.993585	2.068564	0.028190	0.044411	-0.009452	-49.897054	-73.681187	-39.292821	39.979034215	116.338885929	51.051904
61984	19255899	9.367553	-2.009961	2.040583	0.039434	0.047061	-0.008993	-49.871677	-73.678618	-39.313418	39.979034218	116.338885933	51.051763
61985	19255924	9.342812	-2.013975	2.012616	0.048013	0.052869	-0.009561	-49.842729	-73.675572	-39.336457	39.979034221	116.338885937	51.051623
61986	19255949	9.338751	-2.011152	1.988662	0.058924	0.057332	-0.014880	-49.808881	-73.672691	-39.362972	39.979034225	116.338885940	51.051482
61987	19255974	9.330444	-2.034522	1.985931	0.060293	0.058854	-0.014682	-49.774342	-73.669644	-39.390003	39.979034228	116.338885944	51.051340
61988	19255999	9.335935	-2.056548	1.983192	0.066872	0.065117	-0.018781	-49.735242	-73.666461	-39.420806	39.979034232	116.338885948	51.051199
61989	19256024	9.324942	-2.072949	1.957876	0.062548	0.065364	-0.019571	-49.696432	-73.663336	-39.451952	39.979034235	116.338885951	51.051057
61990	19256049	9.341475	-2.077089	1.961848	0.062692	0.069018	-0.024790	-49.654605	-73.660435	-39.486222	39.979034239	116.338885955	51.050915
61991	19256074	9.334675	-2.026145	1.951384	0.064445	0.072251	-0.028546	-49.610146	-73.657637	-39.522972	39.979034242	116.338885959	51.054376
61992	19256099	9.330581	-2.023342	1.938083	0.056075	0.069831	-0.025971	-49.568617	-73.654775	-39.557920	39.979034246	116.338885962	51.054237
61993	19256124	9.307120	-2.020651	1.958034	0.056124	0.068560	-0.030242	-49.526212	-73.652490	-39.593774	39.979034249	116.338885966	51.054097
61994	19256149	9.307070	-2.030347	1.969948	0.051618	0.069880	-0.035305	-49.482367	-73.650625	-39.631801	39.979034253	116.338885970	51.053957
61995	19256174	9.298787	-2.020736	1.976636	0.046256	0.069202	-0.026427	-49.442369	-73.647850	-39.666620	39.979034256	116.338885973	51.053816
61996	19256199	9.276809	-2.012393	1.961996	0.046976	0.068606	-0.031951	-49.400747	-73.645724	-39.703024	39.979034260	116.338885977	51.053675
61997	19256224	9.267123	-2.004222	1.977987	0.050248	0.063816	-0.030099	-49.361029	-73.643836	-39.736956	39.979034263	116.338885981	51.053533
61998	19256249	9.246452	-1.991873	1.988661	0.042304	0.061035	-0.030160	-49.323467	-73.642208	-39.769827	39.979034267	116.338885984	51.053390
61999	19256274	9.260259	-1.964358	1.990085	0.047189	0.058874	-0.034328	-49.284686	-73.641228	-39.803241	39.979034270	116.338885988	51.053243
62000	19256299	9.250590	-1.969868	1.995403	0.042999	0.055850	-0.033481	-49.247896	-73.640433	-39.835204	39.979034274	116.338885992	51.053099
62001	19256324	9.236812	-1.967135	1.996705	0.039582	0.052781	-0.031433	-49.213386	-73.639697	-39.865301	39.979034277	116.338885995	51.052953
62002	19256349	9.261690	-1.935458	1.984895	0.035641	0.046666	-0.029948	-49.182174	-73.639367	-39.892549	39.979034281	116.338885999	51.052807
62003	19256374	9.258880	-1.949266	2.002095	0.029823	0.043096	-0.027731	-49.153823	-73.639128	-39.917685	39.979034285	116.338886003	51.052660
62004	19256399	9.252005	-1.924530	2.011498	0.018816	0.040609	-0.029635	-49.127358	-73.639324	-39.942498	39.979034288	116.338886007	51.052512
62005	19256424	9.262971	-1.935595	2.024768	0.013308	0.027454	-0.032623	-49.105580	-73.641075	-39.963249	39.979034292	116.338886010	51.052363
62006	19256449	9.247827	-1.923195	2.027475	0.006258	0.020289	-0.033362	-49.087213	-73.643575	-39.981497	39.979034296	116.338886014	51.052214
62007	19256474	9.227173	-1.905335	2.030145	0.000627	0.017357	-0.023037	-49.074031	-73.645232	-39.995182	39.979034299	116.338886018	51.045814
62008	19256499	9.222996	-1.915005	2.039460	-0.011928	0.013171	-0.024079	-49.063854	-73.647393	-40.007609	39.979034303	116.338886022	51.045656
62009	19256524	9.239545	-1.901250	2.048794	-0.019363	0.010984	-0.022942	-49.055910	-73.649636	-40.018818	39.979034307	116.338886025	51.045497
62010	19256549	9.231179	-1.904169	2.082055	-0.027736	0.003569	-0.023565	-49.051697	-73.652642	-40.027388	39.979034310	116.338886029	51.045338
62011	19256574	9.217358	-1.930314	2.085898	-0.041555	-0.003955	-0.015628	-49.054779	-73.655496	-40.030420	39.979034314	116.338886033	51.045177
62012	19256599	9.200859	-1.923377	2.075302	-0.054318	-0.012051	-0.011636	-49.063954	-73.658678	-40.029007	39.979034318	116.338886037	51.045016
62013	19256624	9.209010	-1.988088	2.083057	-0.069267	-0.018677	-0.015269	-49.076556	-73.662875	-40.026254	39.979034322	116.338886041	51.044853
62014	19256649	9.239358	-2.000411	2.065764	-0.074522	-0.025873	-0.013921	-49.093004	-73.667600	-40.020277	39.979034325	116.338886044	51.044690
62015	19256674	9.254444	-2.016982	2.083017	-0.078829	-0.027552	-0.016466	-49.109882	-73.672758	-40.014496	39.979034329	116.338886048	51.045611
62016	19256699	9.282000	-2.023889	2.081675	-0.087453	-0.037383	-0.013824	-49.132484	-73.678551	-40.004038	39.979034333	116.338886052	51.045447
62017	19256724	9.320510	-2.045973	2.098903	-0.095604	-0.042233	-0.012685	-49.158424	-73.684674	-39.991317	39.979034337	116.338886056	51.045283
62018	19256749	9.313623	-2.055568	2.093541	-0.098822	-0.049932	-0.010948	-49.188249	-73.691328	-39.975031	39.979034341	116.338886060	51.045118
62019	19256774	9.314990	-2.052837	2.096245	-0.102292	-0.058088	-0.010276	-49.221829	-73.698670	-39.955350	39.979034344	116.338886064	51.044954
62020	19256799	9.332935	-2.030834	2.098941	-0.109014	-0.064254	-0.007999	-49.259412	-73.706338	-39.932502	39.979034348	116.338886067	51.044789
62021	19256824	9.349507	-2.021153	2.085734	-0.105420	-0.077678	-0.007142	-49.301773	-73.715163	-39.904142	39.979034352	116.338886071	51.044624
62022	19256849	9.366063	-2.000524	2.093779	-0.103129	-0.088032	-0.004600	-49.348509	-73.724672	-39.870883	39.979034356	116.338886075	51.044459
62023	19256874	9.364757	-1.971618	2.083212	-0.093547	-0.094904	-0.009796	-49.394818	-73.735379	-39.836640	39.979034360	116.338886079	51.046292
62024	19256899	9.402021	-1.944032	2.072704	-0.086032	-0.097872	-0.004584	-49.442877	-73.745788	-39.799455	39.979034364	116.338886083	51.046129
62025	19256924	9.393798	-1.908270	2.078136	-0.088499	-0.107230	-0.007610	-49.493875	-73.757388	-39.759580	39.979034368	116.338886087	51.045966
62026	19256949	9.417280	-1.865675	2.080939	-0.082080	-0.121173	-0.011377	-49.548034	-73.770685	-39.715456	39.979034372	116.338886090	51.045803
62027	19256974	9.432548	-1.827038	2.055822	-0.082780	-0.124650	-0.010876	-49.603838	-73.784239	-39.669728	39.979034376	116.338886094	51.045640
62028	19256999	9.399507	-1.816000	2.055815	-0.077170	-0.134501	-0.012207	-49.662198	-73.798839	-39.620503	39.979034380	116.338886098	51.045477
62029	19257024	9.410597	-1.766467	2.053339	-0.085065	-0.139540	-0.011009	-49.724065	-73.813761	-39.568808	39.979034384	116.338886102	51.045314
62030	19257049	9.398230	-1.743033	2.050736	-0.092103	-0.143541	-0.004214	-49.790721	-73.828294	-39.513181	39.979034388	116.338886106	51.045151
62031	19257074	9.403810	-1.705883	2.046886	-0.092943	-0.152294	-0.008737	-49.859473	-73.844112	-39.455500	39.979034392	116.338886110	51.045164
62032	19257099	9.424571	-1.667322	2.036385	-0.101815	-0.156203	-0.008236	-49.931259	-73.860217	-39.395989	39.979034396	116.338886114	51.045000
62033	19257124	9.410832	-1.657637	2.024428	-0.104852	-0.159073	-0.005683	-50.005512	-73.876284	-39.334367	39.979034400	116.338886118	51.044836
62034	19257149	9.403904	-1.639832	2.047115	-0.100273	-0.163585	-0.006083	-50.080832	-73.892789	-39.270957	39.979034404	116.338886122	51.044672
62035	19257174	9.365480	-1.623100	1.988645	-0.106858	-0.163616	-0.004376	-50.157792	-73.909085	-39.206827	39.979034409	116.338886126	51.044507
62036	19257199	9.346143	-1.613559	2.016565	-0.118320	-0.158392	-0.007552	-50.233530	-73.925228	-39.145682	39.979034413	116.338886131	51.044342
62037	19257224	9.355788	-1.608067	2.019254	-0.117417	-0.155868	-0.008111	-50.308131	-73.941179	-39.085590	39.979034417	116.338886135	51.044176
62038	19257249	9.339212	-1.628724	2.024508	-0.118707	-0.153376	0.001103	-50.385021	-73.955864	-39.023315	39.979034421	116.338886139	51.044009
62039	19257274	9.359793	-1.672814	2.032346	-0.122407	-0.150245	-0.001812	-50.460438	-73.970563	-38.963127	39.979034425	116.338886143	51.044044
62040	19257299	9.319711	-1.705915	2.062829	-0.123093	-0.149730	-0.000630	-50.536253	-73.985062	-38.902632	39.979034429	116.338886147	51.043876
62041	19257324	9.315426	-1.747347	2.098587	-0.124928	-0.142156	-0.007054	-50.607494	-73.999561	-38.847175	39.979034434	116.338886152	51.043708
62042	19257349	9.327785	-1.770742	2.102507	-0.123502	-0.139602	-0.005725	-50.678077	-74.013662	-38.792192	39.979034438	116.338886156	51.043539
62043	19257374	9.329062	-1.802472	2.118365	-0.115274	-0.141944	-0.004905	-50.748758	-74.027866	-38.735886	39.979034442	116.338886160	51.043369
62044	19257399	9.283480	-1.836959	2.150149	-0.105660	-0.139785	-0.003636	-50.817737	-74.041715	-38.679922	39.979034447	116.338886165	51.043199
62045	19257424	9.290289	-1.827449	2.183430	-0.094116	-0.138676	-0.008763	-50.883115	-74.056015	-38.625986	39.979034451	116.338886169	51.043028
62046	19257449	9.287472	-1.841293	2.205971	-0.083308	-0.141904	-0.011754	-50.947364	-74.070922	-38.571620	39.979034455	116.338886173	51.042857
62047	19257474	9.294276	-1.879881	2.215183	-0.068820	-0.144626	-0.006296	-51.012434	-74.085450	-38.514245	39.979034460	116.338886178	51.040164
62048	19257499	9.302430	-1.903401	2.248324	-0.052075	-0.148708	-0.006601	-51.076716	-74.100363	-38.455199	39.979034464	116.338886182	51.039989
62049	19257524	9.331427	-1.885451	2.237778	-0.034162	-0.151612	-0.008655	-51.139036	-74.115747	-38.395531	39.979034469	116.338886187	51.039813
62050	19257549	9.393466	-1.856596	2.240575	-0.010076	-0.160372	-0.011972	-51.200414	-74.132271	-38.333259	39.979034473	116.338886191	51.039638
62051	19257574	9.411446	-1.826290	2.230042	0.002424	-0.167659	-0.010797	-51.263366	-74.149298	-38.267495	39.979034478	116.338886195	51.039464
62052	19257599	9.429408	-1.796010	2.230148	0.018038	-0.163910	-0.009106	-51.323274	-74.165782	-38.202576	39.979034482	116.338886200	51.039288
62053	19257624	9.418493	-1.742312	2.211735	0.029540	-0.166164	-0.010584	-51.382087	-74.182614	-38.137088	39.979034487	116.338886204	51.039113
62054	19257649	9.448835	-1.720309	2.218446	0.036372	-0.166349	-0.005630	-51.441689	-74.198889	-38.069768	39.979034491	116.338886209	51.038939
62055	19257674	9.474977	-1.714888	2.234453	0.046305	-0.165939	-0.006995	-51.499405	-74.215263	-38.002936	39.979034496	116.338886213	51.037239
62056	19257699	9.491640	-1.669377	2.215973	0.046498	-0.168619	-0.004226	-51.559159	-74.231545	-37.933962	39.979034501	116.338886218	51.037063
62057	19257724	9.488977	-1.614331	2.206847	0.037800	-0.170021	-0.001343	-51.621759	-74.247609	-37.863330	39.979034505	116.338886223	51.036888
62058	19257749	9.504169	-1.595023	2.208275	0.030431	-0.168146	-0.000206	-51.685161	-74.263357	-37.792968	39.979034510	116.338886227	51.036713
62059	19257774	9.534601	-1.550955	2.185784	0.024217	-0.174671	-0.004394	-51.750875	-74.280134	-37.721134	39.979034515	116.338886232	51.036538
62060	19257799	9.548531	-1.504042	2.152728	0.010757	-0.167552	0.000080	-51.817221	-74.295754	-37.650651	39.979034520	116.338886237	51.036364
62061	19257824	9.541672	-1.497114	2.143432	-0.004858	-0.169544	0.000961	-51.887018	-74.311428	-37.578914	39.979034525	116.338886241	51.036190
62062	19257849	9.551421	-1.442017	2.135667	-0.021859	-0.165221	0.008239	-51.959942	-74.325876	-37.506462	39.979034529	116.338886246	51.036017
62063	19257874	9.545934	-1.440611	2.122322	-0.035274	-0.158787	0.009322	-52.032672	-74.339609	-37.436214	39.979034534	116.338886251	51.036227
62064	19257899	9.552778	-1.437926	2.144960	-0.048950	-0.158077	0.012921	-52.108329	-74.352848	-37.364964	39.979034539	116.338886256	51.036055
62065	19257924	9.518328	-1.437936	2.146301	-0.067060	-0.156952	0.010698	-52.185553	-74.366215	-37.294786	39.979034544	116.338886261	51.035883
62066	19257949	9.508752	-1.439213	2.117002	-0.080377	-0.156343	0.012100	-52.265002	-74.379343	-37.224282	39.979034549	116.338886266	51.035711
62067	19257974	9.493643	-1.419908	2.109052	-0.098075	-0.151484	0.013337	-52.345528	-74.391879	-37.155296	39.979034554	116.338886271	51.035538
62068	19257999	9.506008	-1.450136	2.107649	-0.110218	-0.154360	0.018896	-52.430823	-74.404008	-37.083171	39.979034559	116.338886276	51.035366
62069	19258024	9.499112	-1.473523	2.098232	-0.121224	-0.156435	0.010894	-52.516160	-74.417199	-37.012641	39.979034564	116.338886281	51.035194
62070	19258049	9.504617	-1.470781	2.100947	-0.118043	-0.155099	0.007591	-52.599595	-74.430621	-36.943618	39.979034569	116.338886286	51.035022
62071	19258074	9.481112	-1.535415	2.098039	-0.124948	-0.155999	0.006466	-52.684167	-74.444222	-36.874446	39.979034574	116.338886292	51.035258
62072	19258099	9.459002	-1.572578	2.095234	-0.124967	-0.156735	-0.004078	-52.765891	-74.459062	-36.808238	39.979034579	116.338886297	51.035087
62073	19258124	9.454895	-1.562931	2.088644	-0.131945	-0.150499	-0.006782	-52.845351	-74.473646	-36.745422	39.979034585	116.338886302	51.034915
62074	19258149	9.454891	-1.605503	2.067197	-0.131308	-0.150616	-0.006211	-52.925078	-74.488151	-36.682238	39.979034590	116.338886308	51.034744
62075	19258174	9.465883	-1.617903	2.073818	-0.129703	-0.147617	-0.012797	-53.001423	-74.503127	-36.622330	39.979034595	116.338886313	51.034572
62076	19258199	9.507180	-1.626222	2.084489	-0.123382	-0.144839	-0.017144	-53.074493	-74.518341	-36.564885	39.979034600	116.338886318	51.034401
62077	19258224	9.511365	-1.642624	2.057822	-0.113986	-0.144617	-0.022411	-53.144616	-74.534120	-36.509106	39.979034606	116.338886324	51.034229
62080	19258249	9.490645	-1.682484	2.047052	-0.114377	-0.134321	-0.032224	-53.207604	-74.550122	-36.460792	39.979034611	116.338886329	51.034058
62081	19258274	9.461662	-1.729272	2.044217	-0.110871	-0.132054	-0.032704	-53.256412	-74.567138	-36.401710	39.979034181	116.338886029	51.014860
62082	19258299	9.429938	-1.762250	2.033430	-0.109436	-0.127706	-0.034016	-53.315598	-74.582756	-36.356613	39.979034186	116.338886035	51.014684
62083	19258324	9.429835	-1.810451	2.049276	-0.096242	-0.122385	-0.045039	-53.367358	-74.599173	-36.317263	39.979034191	116.338886040	51.014507
62084	19258349	9.415981	-1.843517	2.061078	-0.085633	-0.117698	-0.048225	-53.414746	-74.615547	-36.280874	39.979034197	116.338886045	51.014331
62085	19258374	9.428312	-1.883481	2.062306	-0.075130	-0.113219	-0.056565	-53.456254	-74.632492	-36.249026	39.979034202	116.338886050	51.014155
62086	19258399	9.440691	-1.913705	2.052899	-0.067413	-0.109921	-0.051796	-53.496833	-74.648600	-36.216997	39.979034207	116.338886056	51.013978
62087	19258424	9.404819	-1.961794	2.046088	-0.051895	-0.101429	-0.066385	-53.527168	-74.665659	-36.193289	39.979034213	116.338886061	51.013802
62088	19258449	9.395095	-1.981187	2.065941	-0.039119	-0.099158	-0.065972	-53.554904	-74.682474	-36.170380	39.979034218	116.338886067	51.013626
62089	19258474	9.385437	-2.022353	2.044527	-0.027667	-0.097837	-0.073296	-53.578221	-74.700019	-36.150354	39.979034223	116.338886072	51.013845
62090	19258499	9.375846	-1.998952	2.039270	-0.002357	-0.099340	-0.082143	-53.595842	-74.718709	-36.132476	39.979034229	116.338886077	51.013670
62091	19258524	9.381435	-1.985091	2.015361	0.024034	-0.097831	-0.084761	-53.608270	-74.737571	-36.116064	39.979034234	116.338886083	51.013494
62092	19258549	9.364918	-1.975474	2.012756	0.047174	-0.091241	-0.086848	-53.613978	-74.756114	-36.103183	39.979034240	116.338886088	51.013318
62093	19258574	9.348518	-1.945025	1.976936	0.076894	-0.089538	-0.092837	-53.612858	-74.775202	-36.092969	39.979034245	116.338886093	51.013141
62094	19258599	9.333428	-1.951781	1.941003	0.095865	-0.083305	-0.093760	-53.606098	-74.793867	-36.085783	39.979034251	116.338886099	51.012964
62095	19258624	9.317096	-1.914412	1.883931	0.119160	-0.075075	-0.096162	-53.591753	-74.812110	-36.083001	39.979034256	116.338886104	51.012787
62096	19258649	9.248309	-1.925195	1.830642	0.140101	-0.069533	-0.104170	-53.569525	-74.830804	-36.085278	39.979034262	116.338886110	51.012608
62097	19258674	9.190584	-1.881025	1.788225	0.151308	-0.056203	-0.101519	-53.540822	-74.848059	-36.092601	39.979034267	116.338886115	51.012847
62098	19258699	9.154945	-1.832672	1.748414	0.165857	-0.041460	-0.105692	-53.502402	-74.864538	-36.107831	39.979034273	116.338886121	51.012666
62099	19258724	9.120566	-1.802367	1.735209	0.178407	-0.032762	-0.111383	-53.456625	-74.880927	-36.128819	39.979034279	116.338886126	51.012483
62100	19258749	9.058633	-1.781640	1.715310	0.182796	-0.023700	-0.106709	-53.407764	-74.896001	-36.152348	39.979034284	116.338886131	51.012297
62101	19258774	9.029658	-1.761095	1.744594	0.185773	-0.013350	-0.108957	-53.353279	-74.910444	-36.181259	39.979034290	116.338886137	51.012108
62102	19258799	9.007536	-1.783167	1.760470	0.186802	-0.016473	-0.106059	-53.300821	-74.924814	-36.207917	39.979034296	116.338886142	51.011917
62103	19258824	8.942771	-1.766701	1.769779	0.180699	-0.008193	-0.099584	-53.247692	-74.937724	-36.236172	39.979034301	116.338886148	51.011723
62104	19258849	8.938577	-1.729698	1.816453	0.181749	-0.011024	-0.094232	-53.197259	-74.950257	-36.261478	39.979034307	116.338886153	51.011526
62105	19258874	8.910790	-1.775340	1.882779	0.170034	-0.011444	-0.093760	-53.148773	-74.962766	-36.286505	39.979034313	116.338886159	51.011770
62106	19258899	8.888652	-1.785106	1.917304	0.167075	-0.016782	-0.094847	-53.102580	-74.975853	-36.309594	39.979034319	116.338886165	51.011567
62107	19258924	8.916083	-1.756481	1.981258	0.152168	-0.032206	-0.089924	-53.066630	-74.989699	-36.324288	39.979034324	116.338886170	51.011360
62108	19258949	8.922822	-1.780045	2.034358	0.145316	-0.049531	-0.088206	-53.039571	-75.004838	-36.330792	39.979034330	116.338886176	51.011150
62109	19258974	8.959933	-1.784308	2.066284	0.143199	-0.069514	-0.086068	-53.022017	-75.021453	-36.327770	39.979034336	116.338886181	51.010937
62110	19258999	8.992897	-1.788590	2.106213	0.136605	-0.086099	-0.089622	-53.011348	-75.039904	-36.318599	39.979034342	116.338886187	51.010722
62111	19259024	9.042479	-1.773548	2.130218	0.129290	-0.104821	-0.092426	-53.008848	-75.060289	-36.302058	39.979034348	116.338886192	51.010503
62112	19259049	9.079651	-1.769499	2.147546	0.127907	-0.127681	-0.091724	-53.016610	-75.082564	-36.275103	39.979034354	116.338886198	51.010283
62113	19259074	9.144447	-1.739276	2.148998	0.126092	-0.142327	-0.088707	-53.031963	-75.105754	-36.240564	39.979034360	116.338886204	51.010537
62114	19259099	9.174814	-1.725456	2.137098	0.116885	-0.166214	-0.085306	-53.060116	-75.130609	-36.194151	39.979034366	116.338886209	51.010314
62115	19259124	9.209269	-1.726801	2.125166	0.108828	-0.185226	-0.078376	-53.100014	-75.156298	-36.136785	39.979034372	116.338886215	51.010089
62116	19259149	9.228645	-1.714318	2.105257	0.104862	-0.195405	-0.073309	-53.146704	-75.182271	-36.072988	39.979034378	116.338886221	51.009863
62117	19259174	9.260413	-1.714232	2.074708	0.106606	-0.208062	-0.072153	-53.199211	-75.209184	-36.002923	39.979034384	116.338886226	51.009636
62118	19259199	9.278303	-1.718388	2.087973	0.106522	-0.222398	-0.073333	-53.257813	-75.237444	-35.926575	39.979034390	116.338886232	51.009408
62119	19259224	9.283937	-1.681111	2.056203	0.110970	-0.234511	-0.073728	-53.321199	-75.266766	-35.844633	39.979034397	116.338886238	51.009178
62120	19259249	9.289520	-1.661774	2.038988	0.115940	-0.236169	-0.073875	-53.384839	-75.296224	-35.761702	39.979034403	116.338886243	51.008947
62121	19259274	9.264820	-1.638261	2.012448	0.128064	-0.239512	-0.071704	-53.449210	-75.325693	-35.676232	39.979034409	116.338886249	51.009223
62122	19259299	9.280086	-1.573576	2.004711	0.136688	-0.241216	-0.074649	-53.512437	-75.355623	-35.590680	39.979034415	116.338886255	51.008990
62123	19259324	9.256839	-1.547238	1.948921	0.144143	-0.242656	-0.072895	-53.576107	-75.385449	-35.503577	39.979034422	116.338886261	51.008756
62124	19259349	9.240326	-1.541688	1.942311	0.155050	-0.234495	-0.064708	-53.637573	-75.413614	-35.417149	39.979034428	116.338886267	51.008521
62125	19259374	9.222451	-1.515537	1.938370	0.160678	-0.223629	-0.074288	-53.690560	-75.441940	-35.338661	39.979034435	116.338886272	51.008283
62126	19259399	9.249880	-1.556941	1.968854	0.162853	-0.215663	-0.071326	-53.740908	-75.469231	-35.262586	39.979034441	116.338886278	51.008044
62127	19259424	9.267833	-1.536255	1.959637	0.172918	-0.208022	-0.080299	-53.783701	-75.496896	-35.192835	39.979034447	116.338886284	51.007804
62128	19259449	9.252816	-1.503104	1.927799	0.180382	-0.195794	-0.087664	-53.817752	-75.524366	-35.131019	39.979034454	116.338886290	51.007563
62129	19259474	9.243343	-1.478128	1.872027	0.186862	-0.189339	-0.087619	-53.848172	-75.551277	-35.072002	39.979034461	116.338886296	51.005045
62130	19259499	9.192507	-1.446290	1.826870	0.180735	-0.169079	-0.088941	-53.870088	-75.576622	-35.022679	39.979034467	116.338886302	51.004797
62131	19259524	9.170568	-1.432410	1.792336	0.182810	-0.150695	-0.084105	-53.885134	-75.599852	-34.980147	39.979034474	116.338886308	51.004548
62132	19259549	9.141666	-1.462569	1.761617	0.172290	-0.133802	-0.086528	-53.893356	-75.621933	-34.946221	39.979034480	116.338886314	51.004295
62133	19259574	9.169140	-1.486011	1.780165	0.160509	-0.119059	-0.092979	-53.894538	-75.643516	-34.921306	39.979034487	116.338886320	51.004041
62134	19259599	9.167707	-1.494351	1.802748	0.148276	-0.110045	-0.096977	-53.892110	-75.664801	-34.901929	39.979034493	116.338886327	51.003784
62135	19259624	9.155227	-1.505446	1.822665	0.145593	-0.095586	-0.100215	-53.882464	-75.685241	-34.890400	39.979034500	116.338886333	51.003525
62136	19259649	9.175891	-1.493127	1.835981	0.143678	-0.094825	-0.100605	-53.872621	-75.705661	-34.879359	39.979034507	116.338886339	51.003264
62137	19259674	9.155071	-1.518054	1.878486	0.145151	-0.092517	-0.102419	-53.860916	-75.726098	-34.870021	39.979034514	116.338886345	51.005527
62138	19259699	9.130317	-1.520712	1.861139	0.150643	-0.088689	-0.104517	-53.845981	-75.746454	-34.863206	39.979034520	116.338886351	51.005264
62139	19259724	9.117901	-1.527614	1.862434	0.146154	-0.093247	-0.104485	-53.833768	-75.767191	-34.854248	39.979034527	116.338886358	51.004999
62140	19259749	9.119197	-1.544188	1.883689	0.146900	-0.093618	-0.099956	-53.823124	-75.787437	-34.843560	39.979034534	116.338886364	51.004731
62141	19259774	9.138383	-1.585587	1.903487	0.138944	-0.095034	-0.105986	-53.812252	-75.808501	-34.834284	39.979034541	116.338886370	51.004461
62142	19259799	9.158987	-1.598020	1.926070	0.134918	-0.099088	-0.110473	-53.802309	-75.830426	-34.824646	39.979034548	116.338886377	51.004188
62143	19259824	9.182346	-1.589904	1.955368	0.125492	-0.107758	-0.110538	-53.797672	-75.853093	-34.810931	39.979034555	116.338886383	51.003914
62144	19259849	9.187858	-1.556963	1.970127	0.113212	-0.110789	-0.106990	-53.797394	-75.875606	-34.794534	39.979034561	116.338886389	51.003638
62145	19259874	9.178198	-1.567963	1.978054	0.105597	-0.123875	-0.105305	-53.804822	-75.899031	-34.771317	39.979034568	116.338886396	51.004943
62146	19259899	9.180771	-1.619036	2.016438	0.093515	-0.131741	-0.102945	-53.818457	-75.922848	-34.743488	39.979034575	116.338886402	51.004665
62147	19259924	9.184923	-1.616252	2.016431	0.084661	-0.140539	-0.102881	-53.837518	-75.947399	-34.711376	39.979034582	116.338886408	51.004385
62148	19259949	9.187612	-1.639721	2.023036	0.071408	-0.153832	-0.099204	-53.865966	-75.972645	-34.671548	39.979034590	116.338886415	51.004103
62149	19259974	9.157236	-1.678242	2.028206	0.060706	-0.162451	-0.099914	-53.899831	-75.998695	-34.627721	39.979034597	116.338886421	51.003819
62150	19259999	9.136457	-1.729218	2.041314	0.046788	-0.165579	-0.102471	-53.936425	-76.025299	-34.583142	39.979034604	116.338886428	51.003533
62151	19260024	9.115775	-1.723733	2.051975	0.038415	-0.173509	-0.103600	-53.977690	-76.052694	-34.534990	39.979034611	116.338886434	51.003246
62152	19260049	9.096368	-1.747230	2.081156	0.034238	-0.175913	-0.107716	-54.019455	-76.080760	-34.486945	39.979034618	116.338886441	51.002956
62153	19260074	9.099075	-1.763774	2.090419	0.033605	-0.187775	-0.108527	-54.066778	-76.109909	-34.433272	39.979034626	116.338886447	51.008080
62154	19260099	9.052131	-1.817463	2.096853	0.033154	-0.189689	-0.113118	-54.113717	-76.139741	-34.380070	39.979034633	116.338886454	51.007792
62155	19260124	9.038295	-1.866982	2.092699	0.034706	-0.197287	-0.116682	-54.163018	-76.170614	-34.324213	39.979034640	116.338886460	51.007502
62156	19260149	8.985778	-1.912508	2.127091	0.032343	-0.198695	-0.121538	-54.211903	-76.202157	-34.269141	39.979034648	116.338886467	51.007209
62157	19260174	8.960820	-1.970408	2.150825	0.039886	-0.202717	-0.122611	-54.261485	-76.234150	-34.212246	39.979034655	116.338886473	51.006913
62158	19260199	8.940134	-2.022625	2.130689	0.040074	-0.208941	-0.127444	-54.312599	-76.267214	-34.153754	39.979034663	116.338886480	51.006614
62159	19260224	8.915295	-2.076195	2.110559	0.029239	-0.204699	-0.132307	-54.361839	-76.300477	-34.098797	39.979034670	116.338886486	51.006314
62160	19260249	8.847617	-2.157438	2.127519	0.027297	-0.211740	-0.128676	-54.416227	-76.333893	-34.038835	39.979034678	116.338886492	51.006010
62161	19260274	8.817206	-2.226215	2.123304	0.013454	-0.209840	-0.141732	-54.467487	-76.368659	-33.984142	39.979034685	116.338886499	51.006288
62162	19260299	8.796468	-2.278523	2.120458	0.021234	-0.211601	-0.132184	-54.522031	-76.402446	-33.924931	39.979034693	116.338886505	51.005979
62163	19260324	8.770210	-2.345903	2.113580	0.027120	-0.207959	-0.133650	-54.573746	-76.436089	-33.867771	39.979034701	116.338886511	51.005666
62164	19260349	8.727426	-2.387177	2.116062	0.035693	-0.204653	-0.140059	-54.620689	-76.470194	-33.814266	39.979034709	116.338886518	51.005349
62165	19260374	8.736958	-2.449135	2.122528	0.041401	-0.200917	-0.139640	-54.665391	-76.503930	-33.762231	39.979034716	116.338886524	51.005029
62166	19260399	8.717611	-2.523375	2.098322	0.050181	-0.201651	-0.137185	-54.710283	-76.537431	-33.708715	39.979034724	116.338886530	51.004705
62167	19260424	8.716278	-2.561752	2.059622	0.056246	-0.206815	-0.134619	-54.757968	-76.571048	-33.651442	39.979034732	116.338886536	51.004378
62168	19260449	8.714855	-2.603020	2.050197	0.060609	-0.201994	-0.133835	-54.803192	-76.604165	-33.596064	39.979034740	116.338886542	51.004048
62169	19260474	8.743781	-2.633242	2.043437	0.059380	-0.200664	-0.134031	-54.848116	-76.637185	-33.541183	39.979034748	116.338886548	51.004349
62170	19260499	8.734137	-2.685419	2.003384	0.060496	-0.202022	-0.131573	-54.894654	-76.670019	-33.484487	39.979034756	116.338886554	51.004012
62171	19260524	8.774097	-2.721132	1.988622	0.052276	-0.196978	-0.126049	-54.942044	-76.701779	-33.428132	39.979034764	116.338886560	51.003673
62172	19260549	8.800227	-2.740450	1.996570	0.046687	-0.196673	-0.119369	-54.992660	-76.732719	-33.369294	39.979034773	116.338886565	51.003330
62173	19260574	8.863491	-2.791450	2.015061	0.033692	-0.198354	-0.114691	-55.047865	-76.763236	-33.307660	39.979034781	116.338886571	51.002986
62174	19260599	8.884194	-2.812010	1.992378	0.021735	-0.194423	-0.103541	-55.106978	-76.792108	-33.243779	39.979034789	116.338886576	51.002639
62175	19260624	8.926917	-2.812005	1.987078	0.010595	-0.190644	-0.094207	-55.169320	-76.819557	-33.178227	39.979034797	116.338886582	51.002289
62176	19260649	8.943400	-2.843657	1.990974	-0.003129	-0.194712	-0.084133	-55.239464	-76.846136	-33.106688	39.979034806	116.338886587	51.001937
62177	19260674	8.947443	-2.861662	2.017532	-0.011463	-0.193147	-0.070125	-55.315194	-76.870918	-33.030647	39.979034814	116.338886593	51.002271
62178	19260699	8.974841	-2.893491	2.063973	-0.026083	-0.193881	-0.061633	-55.396645	-76.894735	-32.950889	39.979034822	116.338886598	51.001917
62179	19260724	8.980268	-2.892252	2.097247	-0.039744	-0.202462	-0.052622	-55.487852	-76.918159	-32.863132	39.979034831	116.338886603	51.001560
62181	19260749	9.016061	-2.890959	2.115873	-0.051355	-0.206408	-0.046737	-55.585107	-76.941175	-32.770882	39.979034839	116.338886608	51.001203
62183	19260774	9.007687	-2.877373	2.165102	-0.063622	-0.212124	-0.032696	-55.680665	-76.962693	-32.671115	39.979034393	116.338886494	50.984304
62184	19260799	9.029647	-2.904984	2.188975	-0.067024	-0.224482	-0.025046	-55.797638	-76.984525	-32.560945	39.979034401	116.338886499	50.983945
62185	19260824	9.088780	-2.939486	2.212844	-0.079018	-0.239579	-0.019343	-55.926456	-77.006841	-32.440393	39.979034409	116.338886504	50.983586
62186	19260849	9.098420	-2.888692	2.246282	-0.082602	-0.250748	-0.008871	-56.065611	-77.028744	-32.309768	39.979034418	116.338886508	50.983226
62187	19260874	9.150764	-2.864031	2.268987	-0.084330	-0.261880	0.003943	-56.215671	-77.049938	-32.168221	39.979034427	116.338886513	50.982584
62188	19260899	9.230587	-2.898517	2.288904	-0.086372	-0.276999	0.009277	-56.376195	-77.071612	-32.016247	39.979034435	116.338886517	50.982223
62189	19260924	9.259467	-2.927443	2.300783	-0.094093	-0.282674	0.014374	-56.543063	-77.093028	-31.858914	39.979034444	116.338886522	50.981862
62190	19260949	9.351858	-2.904016	2.291600	-0.092816	-0.294128	0.014965	-56.716481	-77.115173	-31.694686	39.979034453	116.338886526	50.981501
62191	19260974	9.373971	-2.840756	2.294496	-0.090414	-0.292841	0.016430	-56.889958	-77.136929	-31.530060	39.979034462	116.338886530	50.981143
62192	19260999	9.459392	-2.777655	2.341292	-0.082169	-0.291163	0.026613	-57.065416	-77.157220	-31.362205	39.979034470	116.338886534	50.980785
62193	19261024	9.530895	-2.794362	2.394472	-0.075288	-0.298277	0.037672	-57.247956	-77.176616	-31.186088	39.979034479	116.338886538	50.980428
62194	19261049	9.572073	-2.835816	2.432947	-0.071223	-0.311795	0.048587	-57.441336	-77.195611	-30.998271	39.979034488	116.338886542	50.980074
62195	19261074	9.609160	-2.859368	2.468772	-0.064631	-0.316151	0.053984	-57.638477	-77.214148	-30.805642	39.979034498	116.338886546	50.980461
62196	19261099	9.698688	-2.859411	2.488792	-0.056423	-0.327529	0.063927	-57.844438	-77.232199	-30.602778	39.979034507	116.338886550	50.980112
62197	19261124	9.737213	-2.854053	2.511453	-0.050876	-0.338694	0.067501	-58.057373	-77.250502	-30.391964	39.979034516	116.338886554	50.979767
62198	19261149	9.741388	-2.838867	2.508816	-0.041485	-0.344995	0.070472	-58.273952	-77.268744	-30.176049	39.979034525	116.338886558	50.979424
62199	19261174	10.336601	-2.760897	2.581052	-0.034107	-0.366581	0.073905	-58.502914	-77.288003	-29.946373	39.979034535	116.338886561	50.979093
62200	19261199	9.540734	-2.331379	2.530389	-0.029634	-0.374715	0.127816	-58.754129	-77.301062	-29.693243	39.979034544	116.338886565	50.978760
62201	19261224	9.696868	-2.961673	2.597550	-0.039907	-0.411902	0.179228	-59.044446	-77.310305	-29.401550	39.979034554	116.338886568	50.978429
62202	19261249	9.769627	-3.168091	2.608824	-0.052814	-0.436829	0.192533	-59.354997	-77.319402	-29.091022	39.979034563	116.338886572	50.978102
62203	19261274	9.796048	-3.141690	2.530410	-0.068043	-0.465769	0.172333	-59.677580	-77.332719	-28.770409	39.979034573	116.338886575	50.983338
62204	19261299	9.642112	-2.963864	2.463130	-0.070451	-0.473082	0.151016	-59.998417	-77.348807	-28.451961	39.979034583	116.338886578	50.983024
62205	19261324	9.671452	-2.839658	2.367827	-0.068221	-0.480230	0.131941	-60.317668	-77.367385	-28.134832	39.979034593	116.338886581	50.982712
62206	19261349	9.692341	-2.693784	2.365692	-0.067201	-0.478165	0.114417	-60.631044	-77.387618	-27.823597	39.979034602	116.338886585	50.982403
62207	19261374	9.765405	-2.636096	2.385870	-0.072797	-0.466946	0.097656	-60.934705	-77.408795	-27.523165	39.979034612	116.338886588	50.982098
62208	19261399	9.795672	-2.564811	2.449898	-0.075609	-0.458458	0.089085	-61.232345	-77.430114	-27.229339	39.979034623	116.338886591	50.981795
62209	19261424	9.756885	-2.558279	2.535066	-0.087395	-0.446063	0.098465	-61.528534	-77.449072	-26.938752	39.979034633	116.338886594	50.981495
62210	19261449	9.853174	-2.650490	2.548075	-0.099716	-0.439757	0.079395	-61.817979	-77.469682	-26.656904	39.979034643	116.338886597	50.981199
62211	19261474	9.803466	-2.579293	2.637428	-0.116438	-0.427124	0.083207	-62.104696	-77.488652	-26.380325	39.979034653	116.338886599	50.981627
62212	19261499	9.807550	-2.595765	2.632067	-0.127530	-0.408970	0.068341	-62.378994	-77.508001	-26.118116	39.979034664	116.338886602	50.981338
62213	19261524	9.826949	-2.566815	2.621582	-0.138134	-0.396524	0.061148	-62.646337	-77.527173	-25.864606	39.979034674	116.338886605	50.981052
62214	19261549	9.837806	-2.521718	2.696185	-0.143215	-0.358920	0.038274	-62.886731	-77.546551	-25.639459	39.979034685	116.338886608	50.980770
62215	19261574	9.794881	-2.475369	2.818674	-0.143123	-0.335749	0.041015	-63.115211	-77.563873	-25.426514	39.979034695	116.338886610	50.980491
62216	19261599	9.774022	-2.512691	2.870430	-0.140484	-0.312655	0.039005	-63.329913	-77.579783	-25.227305	39.979034706	116.338886613	50.980216
62217	19261624	9.766992	-2.511520	2.922306	-0.135715	-0.279716	0.030723	-63.522853	-77.594492	-25.049691	39.979034717	116.338886616	50.979943
62218	19261649	9.672971	-2.459880	3.089964	-0.126973	-0.260097	0.030079	-63.703323	-77.607910	-24.883573	39.979034728	116.338886618	50.979674
62219	19261674	9.584685	-2.520420	3.099002	-0.116728	-0.250278	0.031032	-63.877217	-77.620474	-24.722692	39.979034739	116.338886621	50.980165
62220	19261699	9.501943	-2.541067	3.102880	-0.112273	-0.236006	0.024700	-64.040617	-77.632853	-24.571910	39.979034750	116.338886623	50.979901
62221	19261724	9.402776	-2.520352	3.097572	-0.104675	-0.224362	0.016703	-64.194109	-77.645446	-24.430164	39.979034762	116.338886625	50.979637
62222	19261749	9.299517	-2.518836	3.061628	-0.103907	-0.217003	0.017828	-64.343766	-77.657356	-24.292238	39.979034773	116.338886628	50.979375
62223	19261774	9.201774	-2.535161	3.012303	-0.102694	-0.201491	0.005443	-64.480856	-77.669832	-24.167004	39.979034785	116.338886630	50.979109
62224	19261799	9.080684	-2.537621	2.937743	-0.093271	-0.181676	0.005558	-64.605151	-77.681012	-24.053492	39.979034797	116.338886632	50.978846
62225	19261824	9.002365	-2.512512	2.863328	-0.086328	-0.161478	-0.002258	-64.714484	-77.691916	-23.954280	39.979034808	116.338886634	50.978582
62226	19261849	8.882413	-2.566162	2.857750	-0.082730	-0.145827	-0.009657	-64.812109	-77.702786	-23.866528	39.979034820	116.338886636	50.978315
62227	19261874	8.809374	-2.582596	2.852320	-0.072159	-0.120690	-0.013745	-64.892271	-77.712626	-23.795102	39.979034832	116.338886639	50.979808
62228	19261899	8.710262	-2.640145	2.777568	-0.068633	-0.112464	-0.021458	-64.964995	-77.722947	-23.730775	39.979034845	116.338886641	50.979538
62229	19261924	8.615234	-2.681218	2.726843	-0.062203	-0.104412	-0.024310	-65.031311	-77.733134	-23.672066	39.979034857	116.338886642	50.979264
62230	19261949	8.532633	-2.727773	2.668117	-0.056082	-0.092264	-0.032444	-65.087329	-77.743630	-23.623000	39.979034869	116.338886644	50.978986
62231	19261974	8.459759	-2.752224	2.589542	-0.043568	-0.086649	-0.032729	-65.138203	-77.753816	-23.577366	39.979034882	116.338886646	50.978701
62232	19261999	8.330415	-2.734054	2.529664	-0.032452	-0.083712	-0.045845	-65.182166	-77.765522	-23.537175	39.979034894	116.338886648	50.978413
62233	19262024	8.286382	-2.744949	2.496335	-0.016393	-0.080013	-0.050938	-65.220277	-77.777661	-23.500622	39.979034907	116.338886649	50.978120
62234	19262049	8.187315	-2.795493	2.403014	-0.005934	-0.083636	-0.050169	-65.259353	-77.789913	-23.461549	39.979034920	116.338886651	50.977820
62235	19262074	8.179228	-2.788363	2.332537	0.004148	-0.080279	-0.057255	-65.293078	-77.802880	-23.426474	39.979034933	116.338886652	50.978323
62236	19262099	8.157388	-2.749591	2.271496	0.011876	-0.077733	-0.059898	-65.323504	-77.816035	-23.393646	39.979034945	116.338886654	50.978011
62237	19262124	8.147927	-2.694388	2.233087	0.036605	-0.078356	-0.061211	-65.350466	-77.829394	-23.360738	39.979034959	116.338886655	50.977692
62238	19262149	8.139775	-2.665372	2.197273	0.054501	-0.084518	-0.056605	-65.379929	-77.842518	-23.322651	39.979034972	116.338886656	50.977366
62239	19262174	8.139959	-2.648616	2.136150	0.073841	-0.078176	-0.058469	-65.402338	-77.855503	-23.288949	39.979034985	116.338886657	50.977032
62240	19262199	8.131822	-2.598971	2.113703	0.094712	-0.084534	-0.062194	-65.424637	-77.869350	-23.252302	39.979034998	116.338886658	50.976691
62241	19262224	8.111226	-2.549443	2.112503	0.115125	-0.093099	-0.064917	-65.448522	-77.884058	-23.211045	39.979035011	116.338886659	50.976343
62242	19262249	8.075558	-2.476413	2.087463	0.128546	-0.096624	-0.066443	-65.472281	-77.899171	-23.167953	39.979035025	116.338886660	50.975987
62243	19262274	8.076973	-2.499680	2.058120	0.137310	-0.107341	-0.070263	-65.500327	-77.915414	-23.119191	39.979035038	116.338886661	50.981374
62244	19262299	8.056354	-2.500994	2.040813	0.133699	-0.115722	-0.071351	-65.533809	-77.932292	-23.065406	39.979035052	116.338886662	50.981008
62245	19262324	8.055001	-2.454298	2.055563	0.122008	-0.127621	-0.075521	-65.575203	-77.950411	-23.005247	39.979035065	116.338886662	50.980635
62246	19262349	8.053718	-2.385478	2.062452	0.109920	-0.145659	-0.079115	-65.628528	-77.970056	-22.934662	39.979035079	116.338886663	50.980254
62247	19262374	8.062030	-2.378557	2.045187	0.095154	-0.160895	-0.078341	-65.693736	-77.990484	-22.854096	39.979035093	116.338886663	50.979864
62248	19262399	8.085443	-2.377222	2.054500	0.081165	-0.179593	-0.075671	-65.773438	-78.011643	-22.760768	39.979035107	116.338886664	50.979467
62249	19262424	8.119857	-2.404732	2.051757	0.057352	-0.198047	-0.078794	-65.867376	-78.034263	-22.656380	39.979035121	116.338886664	50.979062
62250	19262449	8.158414	-2.441849	2.039728	0.040373	-0.220430	-0.069231	-65.980604	-78.056902	-22.534770	39.979035135	116.338886665	50.978649
62251	19262474	8.214897	-2.474856	2.026335	0.023542	-0.234888	-0.071421	-66.105060	-78.080615	-22.404161	39.979035149	116.338886665	50.975093
62252	19262499	8.239741	-2.467925	2.015742	0.006625	-0.249462	-0.068903	-66.242203	-78.104781	-22.263071	39.979035163	116.338886665	50.974663
62253	19262524	8.274164	-2.483045	2.014399	-0.005750	-0.258733	-0.067168	-66.387946	-78.129180	-22.115016	39.979035177	116.338886666	50.974226
62254	19262549	8.319520	-2.466764	2.070330	-0.000259	-0.267138	-0.065228	-66.539296	-78.153726	-21.960443	39.979035192	116.338886666	50.973782
62255	19262574	8.344265	-2.435301	2.116992	0.002559	-0.279455	-0.070973	-66.697061	-78.179642	-21.798917	39.979035206	116.338886666	50.973333
62256	19262599	8.340009	-2.476664	2.140803	0.017031	-0.300555	-0.073798	-66.865997	-78.207027	-21.623876	39.979035220	116.338886666	50.972877
62257	19262624	8.298701	-2.512297	2.110055	0.032865	-0.321668	-0.072968	-67.047052	-78.235377	-21.434157	39.979035235	116.338886666	50.972415
62258	19262649	8.309843	-2.519009	2.056863	0.034650	-0.332262	-0.069676	-67.236354	-78.263756	-21.235773	39.979035249	116.338886665	50.971946
62259	19262674	8.309916	-2.490031	2.042319	0.039539	-0.341700	-0.072959	-67.431042	-78.292955	-21.031193	39.979035264	116.338886665	50.972431
62260	19262699	8.322343	-2.487250	2.031699	0.041185	-0.352915	-0.072812	-67.633714	-78.322604	-20.818241	39.979035279	116.338886665	50.971950
62261	19262724	8.330684	-2.473432	2.015806	0.045994	-0.353004	-0.074156	-67.836453	-78.352282	-20.604540	39.979035294	116.338886665	50.971462
62262	19262749	8.296131	-2.487317	2.043652	0.038102	-0.353451	-0.078805	-68.040460	-78.382449	-20.390722	39.979035309	116.338886664	50.970969
62263	19262774	8.305501	-2.530262	2.129980	0.029914	-0.352812	-0.079308	-68.246178	-78.412494	-20.176378	39.979035324	116.338886664	50.970468
62264	19262799	8.317736	-2.515419	2.201854	0.032535	-0.359134	-0.082363	-68.455939	-78.443124	-19.957547	39.979035339	116.338886663	50.969961
62265	19262824	8.332784	-2.464841	2.283119	0.031070	-0.369255	-0.081547	-68.673873	-78.474010	-19.730612	39.979035354	116.338886663	50.969448
62266	19262849	8.339578	-2.445744	2.332421	0.027362	-0.381871	-0.074215	-68.903674	-78.504393	-19.492133	39.979035369	116.338886662	50.968929
62267	19262874	8.292643	-2.440350	2.372304	0.036998	-0.401048	-0.075822	-69.145578	-78.535779	-19.239921	39.979035384	116.338886661	50.970435
62268	19262899	8.271892	-2.445954	2.398872	0.057003	-0.414707	-0.084388	-69.392882	-78.568790	-18.979305	39.979035400	116.338886660	50.969905
62269	19262924	8.237314	-2.494217	2.425292	0.070539	-0.432172	-0.085647	-69.651031	-78.602617	-18.705679	39.979035415	116.338886659	50.969368
62270	19262949	8.256425	-2.523301	2.473096	0.076237	-0.444004	-0.088233	-69.917222	-78.637129	-18.423049	39.979035431	116.338886658	50.968824
62271	19262974	8.245273	-2.601813	2.482136	0.077714	-0.454116	-0.098141	-70.189264	-78.673207	-18.134271	39.979035447	116.338886657	50.968274
62272	19262999	8.220366	-2.626652	2.511308	0.072938	-0.465055	-0.093082	-70.472380	-78.708854	-17.834934	39.979035463	116.338886656	50.967716
62273	19263024	8.246408	-2.683188	2.536402	0.063738	-0.471467	-0.098744	-70.761663	-78.745277	-17.530689	39.979035479	116.338886655	50.967152
62274	19263049	8.260038	-2.703995	2.577583	0.055254	-0.473264	-0.101005	-71.054775	-78.781788	-17.223819	39.979035495	116.338886654	50.966582
62275	19263074	8.295743	-2.737139	2.609402	0.046676	-0.476502	-0.102201	-71.353006	-78.818301	-16.913020	39.979035511	116.338886652	50.968105
62276	19263099	8.301133	-2.752446	2.654563	0.037055	-0.484072	-0.100885	-71.660125	-78.854661	-16.594607	39.979035527	116.338886651	50.967524
62277	19263124	8.301166	-2.711193	2.665360	0.030622	-0.486156	-0.101186	-71.971576	-78.890821	-16.272757	39.979035544	116.338886649	50.966937
62278	19263149	8.336919	-2.700347	2.699976	0.026986	-0.495644	-0.100452	-72.292380	-78.926954	-15.941947	39.979035560	116.338886648	50.966344
62279	19263174	8.369923	-2.738899	2.706528	0.028053	-0.497443	-0.098051	-72.616934	-78.962479	-15.607201	39.979035577	116.338886646	50.965746
62280	19263199	8.419592	-2.730550	2.686660	0.029676	-0.499722	-0.098029	-72.944978	-78.997731	-15.268703	39.979035594	116.338886644	50.965141
62281	19263224	8.427823	-2.731992	2.698641	0.032157	-0.495519	-0.096509	-73.272138	-79.032229	-14.930784	39.979035611	116.338886642	50.964531
62284	19263249	8.504934	-2.727954	2.722644	0.038078	-0.497948	-0.105689	-73.600336	-79.067718	-14.590982	39.979035628	116.338886640	50.963916
62285	19263274	8.550474	-2.729257	2.694734	0.045696	-0.494120	-0.111474	-73.911127	-79.102976	-14.257564	39.979035172	116.338886614	50.945827
62286	19263299	8.607143	-2.693308	2.650993	0.050633	-0.481404	-0.116724	-74.227659	-79.138619	-13.927892	39.979035189	116.338886612	50.945201
62287	19263324	8.629242	-2.660279	2.643160	0.051871	-0.470509	-0.120743	-74.537456	-79.174056	-13.604936	39.979035206	116.338886610	50.944570
62288	19263349	8.688507	-2.668516	2.637826	0.051989	-0.462324	-0.120494	-74.843411	-79.208821	-13.285913	39.979035223	116.338886607	50.943936
62289	19263374	8.718896	-2.665652	2.607287	0.052558	-0.444804	-0.122516	-75.138131	-79.242903	-12.978280	39.979035241	116.338886605	50.943298
62290	19263399	8.757453	-2.686314	2.607218	0.045156	-0.425220	-0.119007	-75.422145	-79.275495	-12.682657	39.979035258	116.338886602	50.942656
62291	19263424	8.813925	-2.701463	2.611167	0.032674	-0.413561	-0.124326	-75.700137	-79.308137	-12.395013	39.979035276	116.338886600	50.942010
62292	19263449	8.847023	-2.693178	2.604598	0.025541	-0.395314	-0.129233	-75.966497	-79.340567	-12.120278	39.979035294	116.338886597	50.941361
62293	19263474	8.874660	-2.690331	2.578034	0.017530	-0.379665	-0.129998	-76.223906	-79.372332	-11.855847	39.979035312	116.338886594	50.940857
62294	19263499	8.849873	-2.701303	2.563337	0.013739	-0.361650	-0.136954	-76.468757	-79.404242	-11.604773	39.979035330	116.338886592	50.940202
62295	19263524	8.909049	-2.772808	2.548511	0.012618	-0.334632	-0.139874	-76.694548	-79.435470	-11.373277	39.979035348	116.338886589	50.939544
62296	19263549	8.972377	-2.803126	2.557780	0.004266	-0.314772	-0.143096	-76.907423	-79.466335	-11.156159	39.979035366	116.338886586	50.938884
62297	19263574	8.983335	-2.829313	2.566975	-0.000529	-0.294505	-0.144534	-77.106731	-79.496604	-10.953560	39.979035385	116.338886583	50.938222
62298	19263599	9.020340	-2.874920	2.624043	-0.007795	-0.274853	-0.148433	-77.292719	-79.526671	-10.765586	39.979035403	116.338886579	50.937557
62299	19263624	9.040800	-2.939805	2.671721	-0.007974	-0.264140	-0.148255	-77.471707	-79.556268	-10.584775	39.979035422	116.338886576	50.936890
62300	19263649	9.032402	-2.993551	2.688803	-0.023013	-0.249377	-0.157560	-77.641080	-79.586611	-10.415948	39.979035441	116.338886573	50.936222
62301	19263674	9.048924	-3.036144	2.672726	-0.024818	-0.242487	-0.154689	-77.806898	-79.616252	-10.251010	39.979035460	116.338886569	50.940849
62302	19263699	9.065520	-3.068994	2.627416	-0.017959	-0.224672	-0.161560	-77.957901	-79.646238	-10.100155	39.979035479	116.338886566	50.940182
62303	19263724	9.095876	-3.112869	2.586067	-0.009617	-0.212136	-0.161693	-78.098913	-79.675801	-9.958254	39.979035498	116.338886562	50.939515
62304	19263749	9.141324	-3.158252	2.573962	-0.003809	-0.192621	-0.177494	-78.222293	-79.706946	-9.833443	39.979035517	116.338886558	50.938846
62305	19263774	9.221211	-3.163802	2.579330	0.013408	-0.173858	-0.179881	-78.329034	-79.737836	-9.723048	39.979035536	116.338886554	50.938178
62306	19263799	9.239069	-3.176257	2.597904	0.023827	-0.155865	-0.179374	-78.421027	-79.768100	-9.626135	39.979035556	116.338886550	50.937508
62307	19263824	9.214188	-3.228545	2.591091	0.033192	-0.134869	-0.176996	-78.496237	-79.797404	-9.544921	39.979035575	116.338886546	50.936838
62308	19263849	9.269200	-3.305623	2.593497	0.037219	-0.118469	-0.177602	-78.558392	-79.826309	-9.476392	39.979035595	116.338886541	50.936167
62309	19263874	9.247184	-3.331678	2.568126	0.044306	-0.103611	-0.179069	-78.608011	-79.854986	-9.419574	39.979035615	116.338886537	50.935772
62310	19263899	9.266634	-3.313569	2.513670	0.041333	-0.087917	-0.176778	-78.646367	-79.882891	-9.374635	39.979035635	116.338886532	50.935101
62311	19263924	9.272203	-3.281896	2.508455	0.046735	-0.073144	-0.175680	-78.672691	-79.910221	-9.341135	39.979035655	116.338886528	50.934430
62312	19263949	9.298270	-3.280724	2.551021	0.049123	-0.061271	-0.170079	-78.690324	-79.936428	-9.316119	39.979035676	116.338886523	50.933759
62313	19263974	9.307741	-3.313934	2.614766	0.045495	-0.055142	-0.167660	-78.704107	-79.962122	-9.295541	39.979035696	116.338886518	50.933089
62314	19263999	9.311652	-3.344484	2.681126	0.034468	-0.047056	-0.166121	-78.713372	-79.987373	-9.281158	39.979035716	116.338886513	50.932418
62315	19264024	9.321176	-3.362535	2.723630	0.033301	-0.049691	-0.160724	-78.725823	-80.011939	-9.263709	39.979035737	116.338886508	50.931748
62316	19264049	9.350072	-3.313177	2.765059	0.015989	-0.051127	-0.157025	-78.742568	-80.036024	-9.244421	39.979035758	116.338886502	50.931078
62317	19264074	9.403734	-3.333885	2.787636	0.017107	-0.055903	-0.154623	-78.763454	-80.059905	-9.220768	39.979035779	116.338886497	50.928779
62318	19264099	9.431225	-3.354602	2.803534	0.023326	-0.062402	-0.152430	-78.789124	-80.083656	-9.191354	39.979035800	116.338886491	50.928109
62319	19264124	9.511109	-3.354665	2.820889	0.031194	-0.068371	-0.148968	-78.819159	-80.107085	-9.156368	39.979035821	116.338886486	50.927440
62320	19264149	9.566297	-3.294208	2.831725	0.039379	-0.074543	-0.146128	-78.853611	-80.130283	-9.115710	39.979035842	116.338886480	50.926772
62321	19264174	9.662844	-3.225410	2.834691	0.049280	-0.089370	-0.137553	-78.900189	-80.152680	-9.061308	39.979035864	116.338886474	50.926108
62322	19264199	9.778593	-3.204843	2.853438	0.059463	-0.102215	-0.136071	-78.956198	-80.175214	-8.995858	39.979035885	116.338886468	50.925445
62323	19264224	9.912320	-3.123776	2.873701	0.077029	-0.121456	-0.129816	-79.026615	-80.197382	-8.913237	39.979035907	116.338886462	50.924785
62324	19264249	10.047382	-3.077090	2.896574	0.093795	-0.147137	-0.126264	-79.116485	-80.219728	-8.808442	39.979035929	116.338886455	50.924129
62325	19264274	10.193568	-3.049506	2.867467	0.115390	-0.170165	-0.122738	-79.223090	-80.242168	-8.683534	39.979035951	116.338886449	50.926099
62326	19264299	10.309528	-2.968198	2.829248	0.131385	-0.190929	-0.124471	-79.344707	-80.265362	-8.541080	39.979035973	116.338886442	50.925456
62327	19264324	10.425509	-2.852507	2.807089	0.139652	-0.202760	-0.123259	-79.475688	-80.288644	-8.387934	39.979035995	116.338886436	50.924820
62328	19264349	10.569066	-2.716221	2.786368	0.146054	-0.216672	-0.121556	-79.618170	-80.311985	-8.222199	39.979036018	116.338886429	50.924190
62329	19264374	10.711140	-2.636405	2.778728	0.144361	-0.230929	-0.118220	-79.773936	-80.335149	-8.043247	39.979036040	116.338886422	50.923572
62330	19264399	10.847558	-2.598012	2.800214	0.142334	-0.245594	-0.124562	-79.942035	-80.359492	-7.852092	39.979036063	116.338886416	50.922958
62331	19264424	10.931625	-2.643337	2.774803	0.132118	-0.259416	-0.130282	-80.123190	-80.384887	-7.649193	39.979036086	116.338886409	50.922354
62332	19264449	10.956407	-2.680428	2.754784	0.114302	-0.263834	-0.130859	-80.311523	-80.410362	-7.441618	39.979036109	116.338886402	50.921759
62333	19264474	11.022723	-2.610144	2.729808	0.079626	-0.265533	-0.133199	-80.506964	-80.436090	-7.231880	39.979036132	116.338886395	50.927971
62334	19264499	11.156475	-2.522223	2.743465	0.054169	-0.268246	-0.135089	-80.709179	-80.462029	-7.018993	39.979036155	116.338886388	50.927403
62335	19264524	11.304088	-2.370907	2.768014	0.037661	-0.270838	-0.128610	-80.917950	-80.486984	-6.801872	39.979036178	116.338886380	50.926847
62336	19264549	11.455678	-2.325578	2.793498	0.033106	-0.275590	-0.129639	-81.132377	-80.512057	-6.579694	39.979036202	116.338886373	50.926302
62337	19264574	11.492860	-2.365453	2.782751	0.023995	-0.275004	-0.133543	-81.348260	-80.537533	-6.357379	39.979036225	116.338886366	50.925772
62338	19264599	11.503949	-2.385972	2.742773	0.025348	-0.275974	-0.146662	-81.564296	-80.564749	-6.134730	39.979036249	116.338886359	50.925252
62339	19264624	11.512319	-2.356968	2.721605	0.012632	-0.271615	-0.156628	-81.778458	-80.593151	-5.915844	39.979036273	116.338886352	50.924744
62340	19264649	11.574308	-2.369329	2.719007	0.021358	-0.270276	-0.171573	-81.989718	-80.623511	-5.698651	39.979036297	116.338886344	50.924249
62341	19264674	11.654095	-2.436858	2.733385	0.012095	-0.266114	-0.185846	-82.198417	-80.655684	-5.485418	39.979036321	116.338886337	50.925382
62342	19264699	11.744920	-2.515347	2.741154	0.000128	-0.267452	-0.207803	-82.408913	-80.690872	-5.272122	39.979036345	116.338886329	50.924916
62343	19264724	11.828849	-2.573235	2.753030	-0.020397	-0.264163	-0.221972	-82.619498	-80.727884	-5.061736	39.979036370	116.338886322	50.924464
62344	19264749	11.914142	-2.651745	2.768721	-0.055999	-0.259559	-0.230800	-82.831880	-80.765941	-4.854721	39.979036395	116.338886314	50.924027
62345	19264774	11.982597	-2.777401	2.865463	-0.102866	-0.254330	-0.236948	-83.047468	-80.804656	-4.651280	39.979036419	116.338886307	50.923609
62346	19264799	12.040169	-2.882225	2.928990	-0.162014	-0.250353	-0.235093	-83.269992	-80.842914	-4.449417	39.979036444	116.338886299	50.923203
62347	19264824	12.075758	-2.954027	2.981961	-0.226952	-0.243346	-0.222160	-83.498709	-80.879089	-4.250725	39.979036469	116.338886291	50.922814
62348	19264849	12.090618	-3.020356	3.064226	-0.280502	-0.238383	-0.217244	-83.732869	-80.914358	-4.054309	39.979036494	116.338886283	50.922442
62349	19264874	12.069642	-3.107340	3.135729	-0.320460	-0.226834	-0.203374	-83.965439	-80.947347	-3.865322	39.979036520	116.338886276	50.915457
62350	19264899	12.051408	-3.205312	3.207226	-0.354995	-0.219616	-0.194667	-84.198801	-80.978867	-3.680555	39.979036545	116.338886267	50.915110
62351	19264924	12.012626	-3.304398	3.225538	-0.378077	-0.210555	-0.184180	-84.429694	-81.008647	-3.501649	39.979036571	116.338886259	50.914780
62352	19264949	11.994551	-3.365076	3.259896	-0.382914	-0.201166	-0.175682	-84.654869	-81.036975	-3.329249	39.979036597	116.338886251	50.914466
62353	19264974	11.949038	-3.406322	3.243796	-0.380653	-0.181337	-0.175683	-84.862983	-81.064942	-3.173806	39.979036623	116.338886243	50.914168
62354	19264999	11.936444	-3.505425	3.270057	-0.376555	-0.160472	-0.182077	-85.052141	-81.093474	-3.036968	39.979036649	116.338886234	50.913887
62355	19265024	11.948754	-3.496008	3.308690	-0.371808	-0.132212	-0.186144	-85.215526	-81.122178	-2.925539	39.979036675	116.338886226	50.913621
62356	19265049	11.950187	-3.445100	3.322133	-0.368704	-0.103386	-0.182062	-85.353228	-81.149915	-2.839663	39.979036702	116.338886217	50.913372
62357	19265074	11.921535	-3.292286	3.297341	-0.365117	-0.076704	-0.177468	-85.466911	-81.176661	-2.777582	39.979036729	116.338886208	50.910876
62358	19265099	11.870730	-3.176615	3.280492	-0.342733	-0.048755	-0.167264	-85.552856	-81.201619	-2.740329	39.979036756	116.338886199	50.910656
62359	19265124	11.819848	-3.146245	3.260576	-0.318326	-0.015745	-0.169238	-85.604963	-81.226489	-2.733781	39.979036783	116.338886190	50.910451
62360	19265149	11.761997	-3.157146	3.249839	-0.293738	0.006093	-0.171895	-85.633252	-81.251497	-2.747767	39.979036810	116.338886181	50.910261
62361	19265174	11.775856	-3.161121	3.212626	-0.275573	0.033167	-0.181261	-85.633108	-81.277549	-2.787888	39.979036837	116.338886172	50.910084
62362	19265199	11.834010	-3.116831	3.136945	-0.273113	0.055876	-0.195897	-85.610234	-81.305442	-2.850644	39.979036865	116.338886162	50.909923
62363	19265224	11.992756	-3.057438	3.053436	-0.274888	0.075108	-0.194474	-85.569425	-81.332914	-2.931795	39.979036893	116.338886153	50.909778
62364	19265249	12.163903	-3.052950	2.943140	-0.282165	0.087319	-0.196855	-85.517621	-81.360581	-3.025117	39.979036920	116.338886143	50.909649
62365	19265274	12.353140	-3.053651	2.759759	-0.295262	0.103049	-0.197718	-85.452330	-81.388178	-3.133969	39.979036948	116.338886134	50.911561
62366	19265299	12.560234	-3.103894	2.569519	-0.314423	0.125463	-0.196809	-85.368106	-81.415368	-3.264739	39.979036977	116.338886124	50.911471
62367	19265324	12.701206	-3.123874	2.392652	-0.332525	0.148025	-0.198470	-85.264263	-81.442499	-3.417962	39.979037005	116.338886114	50.911401
62368	19265349	12.871235	-3.068204	2.213355	-0.351790	0.168517	-0.198945	-85.142831	-81.469408	-3.591751	39.979037033	116.338886104	50.911351
62369	19265374	13.010794	-3.031966	2.077910	-0.358462	0.192593	-0.196306	-84.998672	-81.495584	-3.789475	39.979037062	116.338886094	50.911328
62370	19265399	13.100640	-3.031584	1.962249	-0.378360	0.216001	-0.184603	-84.834931	-81.519714	-4.009867	39.979037091	116.338886084	50.911323
62371	19265424	13.146341	-3.038062	1.874464	-0.395888	0.237280	-0.174578	-84.653106	-81.542036	-4.251067	39.979037119	116.338886074	50.911340
62372	19265449	13.125843	-3.048789	1.794631	-0.399487	0.256012	-0.172301	-84.452889	-81.563661	-4.511368	39.979037148	116.338886064	50.911381
62373	19265474	13.080555	-3.000461	1.752179	-0.406496	0.272946	-0.171867	-84.236218	-81.584845	-4.789299	39.979037177	116.338886053	50.915542
62374	19265499	12.981578	-2.903929	1.716532	-0.408283	0.278419	-0.169817	-84.013498	-81.605501	-5.073593	39.979037206	116.338886043	50.915632
62375	19265524	12.860594	-2.821100	1.644925	-0.394259	0.286943	-0.166391	-83.779640	-81.625373	-5.367100	39.979037235	116.338886032	50.915743
62376	19265549	12.694126	-2.782193	1.561134	-0.388986	0.290692	-0.164412	-83.540364	-81.644728	-5.665304	39.979037264	116.338886022	50.915875
62377	19265574	12.549897	-2.725177	1.405655	-0.378174	0.288785	-0.163203	-83.300287	-81.663760	-5.962739	39.979037293	116.338886011	50.916021
62378	19265599	12.390411	-2.732809	1.259208	-0.369737	0.289834	-0.159375	-83.057212	-81.682048	-6.261967	39.979037323	116.338886000	50.916191
62379	19265624	12.218675	-2.710051	1.053087	-0.362906	0.299315	-0.155632	-82.803198	-81.699448	-6.571249	39.979037352	116.338885990	50.916378
62380	19265649	12.024904	-2.731134	0.828158	-0.354585	0.310519	-0.158666	-82.535496	-81.716871	-6.893144	39.979037382	116.338885979	50.916581
62381	19265674	11.846313	-2.771497	0.576538	-0.353169	0.325416	-0.161186	-82.251477	-81.734146	-7.231312	39.979037411	116.338885968	50.914424
62382	19265699	11.681666	-2.741502	0.305252	-0.337914	0.349897	-0.157456	-81.940542	-81.750156	-7.594453	39.979037440	116.338885957	50.914654
62383	19265724	11.499007	-2.743260	0.057788	-0.318696	0.382590	-0.171292	-81.591536	-81.767157	-7.993266	39.979037470	116.338885946	50.914896
62386	19265749	11.371472	-2.773886	-0.208382	-0.298356	0.421463	-0.174813	-81.199442	-81.783452	-8.432653	39.979037499	116.338885935	50.915151
62387	19265774	11.226021	-2.777033	-0.461149	-0.272334	0.465471	-0.185898	-80.719459	-81.797649	-8.952290	39.979036841	116.338886056	50.869031
62388	19265799	11.091788	-2.683787	-0.726940	-0.231345	0.515953	-0.198947	-80.217676	-81.814094	-9.492767	39.979036870	116.338886045	50.869224
62389	19265824	10.947731	-2.575707	-0.927450	-0.189504	0.563715	-0.207771	-79.659384	-81.829875	-10.084256	39.979036899	116.338886034	50.869426
62390	19265849	10.804989	-2.467696	-1.088165	-0.135340	0.618449	-0.207526	-79.037504	-81.843305	-10.732125	39.979036928	116.338886022	50.869637
62391	19265874	10.684161	-2.425809	-1.246311	-0.083742	0.666116	-0.217719	-78.357425	-81.855783	-11.431300	39.979036957	116.338886011	50.869727
62392	19265899	10.531681	-2.326221	-1.373809	-0.047883	0.708911	-0.224638	-77.626813	-81.866733	-12.176313	39.979036985	116.338885999	50.869950
62393	19265924	10.390195	-2.197813	-1.483859	-0.018786	0.747891	-0.229162	-76.851045	-81.875695	-12.962710	39.979037014	116.338885988	50.870178
62394	19265949	10.219888	-2.003315	-1.593732	-0.002295	0.783095	-0.232771	-76.036151	-81.882433	-13.786229	39.979037042	116.338885976	50.870411
62395	19265974	10.097767	-1.773187	-1.671544	-0.000715	0.809852	-0.239629	-75.192083	-81.887485	-14.638976	39.979037070	116.338885965	50.870641
62396	19265999	10.008638	-1.544611	-1.712051	0.000578	0.827793	-0.238448	-74.329917	-81.889906	-15.509809	39.979037099	116.338885953	50.870878
62397	19266024	9.922213	-1.285839	-1.715288	-0.007997	0.834231	-0.236510	-73.463010	-81.889950	-16.386669	39.979037127	116.338885942	50.871117
62398	19266049	9.903258	-1.028541	-1.697162	-0.031583	0.830850	-0.236066	-72.603048	-81.888210	-17.259928	39.979037155	116.338885930	50.871356
62399	19266074	9.889798	-0.779533	-1.683078	-0.048943	0.815600	-0.236186	-71.760662	-81.885326	-18.117954	39.979037182	116.338885918	50.867290
62400	19266099	9.863975	-0.520845	-1.676957	-0.079100	0.789048	-0.234893	-70.948993	-81.881734	-18.949319	39.979037210	116.338885907	50.867524
62401	19266124	9.889192	-0.282640	-1.705443	-0.103733	0.753391	-0.227957	-70.177765	-81.877283	-19.743405	39.979037238	116.338885895	50.867759
62402	19266149	9.893734	-0.045892	-1.731248	-0.139831	0.708126	-0.216766	-69.459151	-81.872107	-20.489577	39.979037265	116.338885884	50.867993
62403	19266174	9.899701	0.197851	-1.778335	-0.187768	0.664879	-0.206484	-68.792581	-81.866488	-21.190122	39.979037292	116.338885873	50.868225
62404	19266199	9.956528	0.360331	-1.809680	-0.234136	0.616689	-0.192736	-68.183604	-81.860465	-21.839209	39.979037320	116.338885862	50.868458
62405	19266224	9.947375	0.606899	-1.867383	-0.283521	0.566699	-0.172350	-67.636723	-81.853503	-22.432724	39.979037347	116.338885851	50.868690
62406	19266249	9.980864	0.751734	-1.957323	-0.332443	0.518143	-0.153528	-67.149910	-81.845968	-22.972647	39.979037374	116.338885840	50.868921
62407	19266274	10.055717	0.896514	-2.041915	-0.384066	0.467810	-0.135291	-66.724849	-81.838244	-23.457666	39.979037400	116.338885829	50.869047
62408	19266299	10.114020	1.055091	-2.122496	-0.441127	0.423813	-0.117484	-66.356179	-81.830214	-23.893985	39.979037427	116.338885819	50.869277
62409	19266324	10.158391	1.203731	-2.143252	-0.484365	0.376862	-0.085175	-66.050354	-81.820297	-24.273080	39.979037454	116.338885808	50.869507
62410	19266349	10.251098	1.340255	-2.218531	-0.519215	0.332810	-0.064927	-65.798610	-81.810045	-24.602591	39.979037480	116.338885798	50.869736
62411	19266374	10.311975	1.403773	-2.279493	-0.542520	0.294125	-0.049175	-65.592422	-81.799829	-24.889457	39.979037506	116.338885788	50.869968
62412	19266399	10.356441	1.499086	-2.374860	-0.561108	0.257064	-0.034152	-65.429169	-81.789724	-25.135640	39.979037532	116.338885778	50.870199
62413	19266424	10.425722	1.575143	-2.479646	-0.580149	0.225437	-0.016488	-65.304959	-81.779120	-25.345138	39.979037558	116.338885769	50.870431
62414	19266449	10.504564	1.703297	-2.525759	-0.587285	0.195834	0.001635	-65.216338	-81.767876	-25.519716	39.979037584	116.338885759	50.870664
62415	19266474	10.551707	1.790194	-2.591918	-0.575620	0.168729	0.007467	-65.153127	-81.757469	-25.666929	39.979037609	116.338885750	50.878068
62416	19266499	10.572587	1.820729	-2.654309	-0.553560	0.155875	0.026059	-65.106292	-81.745402	-25.794412	39.979037634	116.338885741	50.878312
62417	19266524	10.579539	1.785110	-2.696944	-0.523619	0.143319	0.039935	-65.072423	-81.732276	-25.904464	39.979037659	116.338885732	50.878558
62418	19266549	10.608331	1.708013	-2.685218	-0.482264	0.134625	0.046618	-65.043399	-81.718800	-26.003638	39.979037684	116.338885724	50.878806
62419	19266574	10.656241	1.597688	-2.625716	-0.425789	0.129004	0.040284	-65.008869	-81.706477	-26.100204	39.979037709	116.338885716	50.879056
62420	19266599	10.722076	1.444769	-2.584909	-0.354783	0.129296	0.032175	-64.960743	-81.695180	-26.200235	39.979037733	116.338885708	50.879309
62421	19266624	10.740935	1.257389	-2.524349	-0.273886	0.136013	0.014707	-64.888008	-81.685725	-26.313427	39.979037758	116.338885700	50.879564
62422	19266649	10.730857	1.076856	-2.453129	-0.184762	0.141086	0.006548	-64.794830	-81.676997	-26.434381	39.979037782	116.338885692	50.879823
62423	19266674	10.728901	0.875488	-2.335402	-0.096488	0.154585	-0.010352	-64.670222	-81.669598	-26.574322	39.979037806	116.338885685	50.881806
62424	19266699	10.715837	0.661695	-2.195139	0.008939	0.174870	-0.024998	-64.506707	-81.662797	-26.738326	39.979037830	116.338885677	50.882073
62425	19266724	10.732935	0.446173	-1.988365	0.117078	0.195770	-0.033021	-64.306187	-81.655663	-26.924079	39.979037854	116.338885670	50.882344
62426	19266749	10.709966	0.211342	-1.755057	0.231916	0.221567	-0.035094	-64.066032	-81.647084	-27.133269	39.979037877	116.338885663	50.882620
62427	19266774	10.656748	-0.032957	-1.555090	0.338119	0.239757	-0.038108	-63.793926	-81.637613	-27.359383	39.979037901	116.338885656	50.882900
62428	19266799	10.591020	-0.302195	-1.324588	0.439410	0.262131	-0.037077	-63.488848	-81.626420	-27.604164	39.979037924	116.338885649	50.883183
62429	19266824	10.521235	-0.552052	-1.112660	0.528489	0.283010	-0.035644	-63.154277	-81.613503	-27.865867	39.979037947	116.338885642	50.883470
62430	19266849	10.397792	-0.733092	-0.891188	0.602256	0.298928	-0.032757	-62.797611	-81.598951	-28.139233	39.979037970	116.338885635	50.883761
62431	19266874	10.313013	-0.856411	-0.677564	0.654677	0.318633	-0.027967	-62.419762	-81.582237	-28.426432	39.979037993	116.338885628	50.883570
62432	19266899	10.233870	-0.949260	-0.490370	0.692770	0.338122	-0.022532	-62.023616	-81.563249	-28.726625	39.979038016	116.338885622	50.883866
62433	19266924	10.184974	-1.064264	-0.289999	0.715666	0.352278	-0.010870	-61.619094	-81.541524	-29.031987	39.979038039	116.338885615	50.884164
62434	19266949	10.093442	-1.117312	-0.081389	0.722979	0.361300	-0.000522	-61.212534	-81.517562	-29.338368	39.979038062	116.338885608	50.884465
62435	19266974	10.035026	-1.115374	0.132717	0.705771	0.365031	0.009446	-60.811978	-81.491775	-29.641190	39.979038084	116.338885602	50.884766
62436	19266999	9.966869	-1.205564	0.337150	0.679763	0.366698	0.016589	-60.419252	-81.464670	-29.939883	39.979038107	116.338885595	50.885070
62437	19267024	9.974302	-1.286531	0.630766	0.630607	0.362782	0.041087	-60.050600	-81.434504	-30.221374	39.979038130	116.338885588	50.885376
62438	19267049	9.992665	-1.360741	0.965693	0.560969	0.341313	0.059967	-59.720779	-81.403288	-30.473705	39.979038153	116.338885582	50.885684
62439	19267074	9.972347	-1.429585	1.343117	0.460254	0.301047	0.077426	-59.448579	-81.372636	-30.682366	39.979038175	116.338885575	50.888646
62440	19267099	9.916538	-1.447087	1.606360	0.351095	0.254358	0.097150	-59.240925	-81.342834	-30.841575	39.979038198	116.338885568	50.888961
62441	19267124	9.885999	-1.370511	1.738269	0.234754	0.200503	0.123981	-59.107409	-81.313613	-30.942659	39.979038221	116.338885562	50.889278
62442	19267149	9.857214	-1.264553	1.735937	0.121219	0.144510	0.156181	-59.051257	-81.284532	-30.981937	39.979038244	116.338885555	50.889596
62443	19267174	9.857699	-1.164906	1.598009	0.021389	0.101219	0.187159	-59.059115	-81.254831	-30.970926	39.979038267	116.338885548	50.889915
62444	19267199	9.877560	-1.158515	1.369285	-0.052437	0.072198	0.217450	-59.115003	-81.223543	-30.922016	39.979038290	116.338885542	50.890236
62445	19267224	9.919423	-1.251105	1.101753	-0.091217	0.056393	0.236762	-59.197758	-81.191031	-30.851537	39.979038313	116.338885535	50.890559
62446	19267249	9.994312	-1.295639	0.884842	-0.115858	0.050214	0.244616	-59.292060	-81.157988	-30.772938	39.979038336	116.338885528	50.890883
62447	19267274	10.045828	-1.293469	0.666802	-0.129093	0.063948	0.246388	-59.377597	-81.123704	-30.705119	39.979038359	116.338885522	50.892675
62448	19267299	10.057376	-1.259714	0.480724	-0.123806	0.077602	0.248617	-59.452085	-81.088137	-30.647713	39.979038382	116.338885515	50.893005
62449	19267324	10.064696	-1.242590	0.309238	-0.125684	0.104836	0.240099	-59.501037	-81.051629	-30.616424	39.979038405	116.338885508	50.893338
62450	19267349	10.061064	-1.130610	0.172638	-0.124617	0.129047	0.236191	-59.528811	-81.013841	-30.606415	39.979038428	116.338885502	50.893672
62451	19267374	10.053121	-1.072456	0.081033	-0.112483	0.155751	0.247324	-59.539025	-80.972739	-30.612426	39.979038451	116.338885495	50.894008
62452	19267399	10.054603	-1.036598	0.058544	-0.104056	0.183797	0.250380	-59.527715	-80.929223	-30.639010	39.979038474	116.338885489	50.894346
62453	19267424	10.045095	-0.992444	0.028099	-0.094256	0.205433	0.252955	-59.499707	-80.883815	-30.681085	39.979038496	116.338885482	50.894685
62454	19267449	10.034230	-0.909782	0.013725	-0.077930	0.225930	0.252314	-59.453748	-80.836991	-30.738980	39.979038519	116.338885476	50.895026
62455	19267474	9.983318	-0.849268	0.023175	-0.061655	0.236422	0.248028	-59.396100	-80.789925	-30.806369	39.979038542	116.338885469	50.888148
62456	19267499	9.921411	-0.758502	0.031422	-0.045046	0.246470	0.251921	-59.330848	-80.741631	-30.879054	39.979038565	116.338885463	50.888482
62457	19267524	9.831883	-0.663634	0.070248	-0.035547	0.255400	0.252549	-59.258525	-80.692594	-30.957534	39.979038587	116.338885456	50.888818
62458	19267549	9.778152	-0.574391	0.118378	-0.021137	0.254084	0.250776	-59.185126	-80.643855	-31.035025	39.979038610	116.338885450	50.889153
62459	19267574	9.739415	-0.522426	0.212937	-0.021720	0.247878	0.250967	-59.117280	-80.595532	-31.106982	39.979038632	116.338885444	50.889485
62460	19267599	9.692325	-0.471974	0.340744	-0.016421	0.236167	0.252333	-59.058637	-80.547891	-31.168851	39.979038655	116.338885438	50.889819
62461	19267624	9.643815	-0.439435	0.472495	-0.022610	0.209916	0.246587	-59.018216	-80.502881	-31.213154	39.979038678	116.338885431	50.890152
62462	19267649	9.588354	-0.424869	0.618770	-0.029460	0.185950	0.249314	-58.997874	-80.459301	-31.238097	39.979038700	116.338885425	50.890483
62463	19267674	9.525941	-0.440539	0.772947	-0.030817	0.148611	0.252348	-59.006395	-80.418099	-31.233963	39.979038722	116.338885419	50.897697
62464	19267699	9.442956	-0.446501	0.893926	-0.051780	0.111423	0.247307	-59.042624	-80.380260	-31.204780	39.979038745	116.338885413	50.898032
62465	19267724	9.441329	-0.391968	1.027094	-0.063938	0.071244	0.249758	-59.110420	-80.345073	-31.145342	39.979038767	116.338885407	50.898366
62466	19267749	9.392617	-0.475069	1.175744	-0.069402	0.029424	0.253454	-59.210260	-80.312488	-31.054185	39.979038790	116.338885402	50.898697
62467	19267774	9.270907	-0.474344	1.353905	-0.081454	-0.018150	0.253396	-59.345383	-80.283360	-30.928977	39.979038813	116.338885396	50.899025
62468	19267799	9.240346	-0.418417	1.487045	-0.086930	-0.069502	0.251068	-59.516435	-80.258204	-30.768101	39.979038835	116.338885390	50.899350
62469	19267824	9.245784	-0.336168	1.565807	-0.075433	-0.124712	0.254662	-59.726172	-80.236512	-30.566291	39.979038858	116.338885385	50.899673
62470	19267849	9.271685	-0.418958	1.630713	-0.065449	-0.174911	0.254592	-59.969635	-80.218306	-30.328794	39.979038880	116.338885379	50.899992
62471	19267874	9.168247	-0.425959	1.657240	-0.049676	-0.223580	0.259966	-60.247185	-80.202723	-30.054397	39.979038903	116.338885374	50.904811
62472	19267899	9.063543	-0.386061	1.674614	-0.037086	-0.254290	0.262666	-60.545310	-80.188743	-29.757283	39.979038926	116.338885368	50.905129
62473	19267924	9.040076	-0.409480	1.677190	-0.032349	-0.290871	0.262101	-60.868105	-80.177124	-29.434432	39.979038949	116.338885363	50.905442
62474	19267949	8.988941	-0.496200	1.688859	-0.023879	-0.319332	0.262629	-61.209738	-80.167094	-29.091221	39.979038972	116.338885358	50.905751
62475	19267974	8.936521	-0.575920	1.659333	-0.021109	-0.339639	0.265177	-61.566010	-80.157780	-28.732740	39.979038994	116.338885352	50.906054
62476	19267999	8.875767	-0.724388	1.618918	-0.025585	-0.345866	0.264011	-61.926315	-80.148652	-28.370806	39.979039017	116.338885347	50.906353
62477	19268024	8.804013	-0.852215	1.590505	-0.038509	-0.347587	0.262773	-62.288571	-80.139406	-28.008761	39.979039040	116.338885342	50.906647
62478	19268049	8.744735	-0.937371	1.542350	-0.056088	-0.340618	0.261495	-62.647072	-80.129471	-27.653072	39.979039063	116.338885337	50.906936
62479	19268074	8.728140	-1.022582	1.512804	-0.079946	-0.319314	0.264619	-62.993818	-80.117370	-27.312773	39.979039087	116.338885332	50.907199
62480	19268099	8.667436	-1.105018	1.496551	-0.094846	-0.296201	0.266555	-63.325599	-80.103181	-26.989816	39.979039110	116.338885327	50.907476
62481	19268124	8.590262	-1.162682	1.460439	-0.098822	-0.261387	0.264415	-63.630656	-80.086731	-26.694551	39.979039133	116.338885322	50.907746
62482	19268149	8.525414	-1.209480	1.461604	-0.102045	-0.223520	0.266616	-63.908141	-80.067343	-26.427730	39.979039156	116.338885317	50.908009
62483	19268174	8.466143	-1.231482	1.454801	-0.096597	-0.185896	0.266312	-64.156033	-80.045424	-26.190144	39.979039179	116.338885312	50.908264
62484	19268199	8.394428	-1.298834	1.445233	-0.092261	-0.136878	0.269380	-64.367329	-80.019896	-25.989066	39.979039203	116.338885307	50.908513
62485	19268224	8.340613	-1.315363	1.455790	-0.084110	-0.095363	0.266705	-64.545042	-79.992032	-25.820887	39.979039226	116.338885302	50.908754
62488	19268249	8.278592	-1.322258	1.462383	-0.067917	-0.048397	0.273137	-64.687340	-79.960369	-25.686301	39.979039250	116.338885297	50.908987
62489	19268274	8.217807	-1.358196	1.502120	-0.051512	-0.006033	0.272848	-64.795630	-79.924038	-25.632421	39.979039012	116.338885474	50.860397
62490	19268299	8.165374	-1.359636	1.527362	-0.036857	0.034595	0.279276	-64.873515	-79.886436	-25.558712	39.979039035	116.338885470	50.860526
62491	19268324	8.108887	-1.326647	1.539395	-0.020854	0.070825	0.272079	-64.919858	-79.847551	-25.514708	39.979039059	116.338885465	50.860645
62492	19268349	8.004269	-1.275684	1.527537	0.001818	0.108197	0.269139	-64.934649	-79.806776	-25.499456	39.979039082	116.338885460	50.860755
62493	19268374	7.921525	-1.304593	1.539363	0.015740	0.143254	0.275944	-64.924423	-79.762989	-25.507594	39.979039106	116.338885455	50.860852
62494	19268399	7.857957	-1.322704	1.597784	0.030109	0.175570	0.277282	-64.889561	-79.717066	-25.538679	39.979039130	116.338885451	50.860941
62495	19268424	7.802862	-1.317176	1.599093	0.038579	0.206322	0.275186	-64.831203	-79.669538	-25.592416	39.979039153	116.338885446	50.861018
62496	19268449	7.747749	-1.286943	1.605799	0.033504	0.230327	0.270474	-64.755527	-79.621146	-25.664506	39.979039177	116.338885441	50.861085
62497	19268474	7.691296	-1.260761	1.604491	0.028820	0.257427	0.272924	-64.662939	-79.570756	-25.754476	39.979039201	116.338885436	50.868479
62498	19268499	7.592200	-1.255089	1.557934	0.020500	0.273527	0.281133	-64.563901	-79.518291	-25.852239	39.979039225	116.338885431	50.868529
62499	19268524	7.504039	-1.264643	1.540539	0.000779	0.293821	0.277063	-64.453201	-79.465068	-25.964753	39.979039249	116.338885427	50.868567
62500	19268549	7.461525	-1.223142	1.483482	-0.025189	0.310227	0.282621	-64.337844	-79.410072	-26.085807	39.979039273	116.338885422	50.868591
62501	19268574	7.434022	-1.224385	1.456857	-0.044176	0.327964	0.284971	-64.215027	-79.353623	-26.217241	39.979039297	116.338885417	50.868600
62502	19268599	7.364057	-1.147000	1.374607	-0.064731	0.343321	0.284918	-64.085997	-79.296170	-26.358017	39.979039321	116.338885412	50.868597
62503	19268624	7.332577	-1.099989	1.322858	-0.074837	0.366119	0.283374	-63.943902	-79.237422	-26.513592	39.979039345	116.338885408	50.868580
62504	19268649	7.287236	-1.021503	1.308476	-0.090167	0.380196	0.282733	-63.795933	-79.177796	-26.677412	39.979039369	116.338885403	50.868548
62505	19268674	7.261298	-0.882438	1.294288	-0.088930	0.394630	0.278083	-63.638304	-79.117768	-26.850915	39.979039393	116.338885398	50.874609
62506	19268699	7.195263	-0.795771	1.305160	-0.078282	0.398660	0.277530	-63.478124	-79.057466	-27.025502	39.979039417	116.338885393	50.874554
62507	19268724	7.170640	-0.695244	1.289507	-0.078312	0.398143	0.272882	-63.318583	-78.997700	-27.199480	39.979039442	116.338885389	50.874483
62508	19268749	7.114297	-0.623624	1.273743	-0.074358	0.394246	0.267382	-63.161003	-78.938798	-27.370917	39.979039466	116.338885384	50.874396
62509	19268774	7.099176	-0.543903	1.304593	-0.068498	0.385577	0.260653	-63.007728	-78.881228	-27.537146	39.979039490	116.338885380	50.874291
62510	19268799	7.057898	-0.479291	1.318055	-0.064638	0.369759	0.250514	-62.862396	-78.825899	-27.694748	39.979039515	116.338885375	50.874171
62511	19268824	7.079953	-0.390009	1.366259	-0.067446	0.347304	0.240651	-62.730092	-78.773224	-27.839508	39.979039539	116.338885371	50.874034
62512	19268849	7.051109	-0.293762	1.387813	-0.067030	0.324230	0.228295	-62.609651	-78.723576	-27.972138	39.979039563	116.338885366	50.873880
62513	19268874	7.065010	-0.201605	1.393441	-0.067712	0.291227	0.216569	-62.507467	-78.677546	-28.086265	39.979039588	116.338885362	50.879706
62514	19268899	7.074805	-0.131341	1.376390	-0.064906	0.256573	0.209332	-62.425264	-78.634695	-28.179627	39.979039612	116.338885358	50.879525
62515	19268924	7.072207	-0.085773	1.335307	-0.053032	0.224724	0.207944	-62.361593	-78.594111	-28.252364	39.979039637	116.338885354	50.879327
62516	19268949	7.131544	-0.119978	1.278062	-0.035203	0.199965	0.198308	-62.308197	-78.556382	-28.312023	39.979039662	116.338885349	50.879113
62517	19268974	7.142737	-0.119716	1.214230	-0.010204	0.169045	0.184517	-62.266370	-78.522451	-28.356231	39.979039686	116.338885345	50.878882
62518	19268999	7.129059	-0.159381	1.150255	0.015789	0.144598	0.167590	-62.230747	-78.492291	-28.390314	39.979039711	116.338885342	50.878634
62519	19269024	7.130421	-0.188230	1.136883	0.043897	0.129475	0.155258	-62.196636	-78.464699	-28.418749	39.979039736	116.338885338	50.878369
62520	19269049	7.172965	-0.283289	1.156504	0.056864	0.110261	0.143442	-62.168853	-78.439886	-28.438832	39.979039760	116.338885334	50.878087
62521	19269074	7.193295	-0.377137	1.232053	0.056380	0.092615	0.132965	-62.148731	-78.417579	-28.451171	39.979039785	116.338885330	50.873972
62522	19269099	7.212233	-0.512295	1.304746	0.056246	0.073379	0.130343	-62.139691	-78.396890	-28.452213	39.979039810	116.338885327	50.873654
62523	19269124	7.207693	-0.650224	1.385411	0.058037	0.054528	0.124593	-62.140149	-78.378191	-28.443298	39.979039835	116.338885323	50.873321
62524	19269149	7.218413	-0.778360	1.428894	0.049061	0.040695	0.122711	-62.149769	-78.360656	-28.426340	39.979039860	116.338885320	50.872972
62525	19269174	7.208413	-0.901118	1.501629	0.047009	0.026281	0.120634	-62.167821	-78.344347	-28.401073	39.979039885	116.338885316	50.872609
62526	19269199	7.199879	-0.964681	1.569254	0.039743	0.009948	0.120965	-62.196978	-78.329086	-28.365528	39.979039910	116.338885313	50.872229
62527	19269224	7.191334	-1.076310	1.620740	0.038154	-0.000364	0.121900	-62.232898	-78.314391	-28.323307	39.979039935	116.338885309	50.871835
62528	19269249	7.226819	-1.182579	1.694887	0.051749	-0.018422	0.118884	-62.276862	-78.301277	-28.270881	39.979039960	116.338885306	50.871425
62529	19269274	7.233441	-1.274988	1.747793	0.055097	-0.026798	0.122438	-62.326503	-78.288261	-28.212164	39.979039985	116.338885302	50.871681
62530	19269299	7.245588	-1.298714	1.839476	0.067723	-0.039864	0.126506	-62.383510	-78.275586	-28.144076	39.979040010	116.338885299	50.871244
62531	19269324	7.226080	-1.348464	1.891187	0.072640	-0.058113	0.131018	-62.452273	-78.263533	-28.063258	39.979040035	116.338885296	50.870791
62532	19269349	7.218914	-1.414797	1.964121	0.082147	-0.068380	0.139642	-62.528535	-78.251043	-27.973387	39.979040060	116.338885292	50.870325
62533	19269374	7.213290	-1.435570	1.994642	0.093578	-0.084421	0.139995	-62.612896	-78.239542	-27.873567	39.979040086	116.338885289	50.869844
62534	19269399	7.184293	-1.438363	2.017231	0.102086	-0.088684	0.139685	-62.698365	-78.228330	-27.771365	39.979040111	116.338885285	50.869349
62535	19269424	7.185672	-1.387560	2.050634	0.109513	-0.095308	0.142074	-62.787388	-78.217216	-27.664443	39.979040137	116.338885282	50.868839
62536	19269449	7.210465	-1.338144	2.078772	0.120029	-0.092345	0.145863	-62.874097	-78.205393	-27.558342	39.979040162	116.338885279	50.868314
62537	19269474	7.178850	-1.307810	2.065547	0.137611	-0.089984	0.152595	-62.958731	-78.192521	-27.451772	39.979040188	116.338885275	50.877269
62538	19269499	7.182933	-1.302397	2.089518	0.152403	-0.082704	0.161189	-63.039283	-78.178051	-27.347213	39.979040214	116.338885272	50.876726
62539	19269524	7.196752	-1.287217	2.082935	0.165859	-0.071757	0.169328	-63.113523	-78.161803	-27.247128	39.979040240	116.338885268	50.876169
62540	19269549	7.217540	-1.252750	2.057780	0.173710	-0.061072	0.160275	-63.177107	-78.145995	-27.156776	39.979040266	116.338885265	50.875597
62541	19269574	7.212091	-1.181228	2.069981	0.187048	-0.046365	0.161621	-63.230038	-78.129047	-27.075351	39.979040292	116.338885262	50.875010
62542	19269599	7.191592	-1.094450	2.051657	0.197297	-0.030038	0.161187	-63.271255	-78.111088	-27.004392	39.979040318	116.338885258	50.874409
62543	19269624	7.231540	-1.108226	2.051639	0.206791	-0.014611	0.159805	-63.301158	-78.092303	-26.943601	39.979040344	116.338885255	50.873793
62544	19269649	7.217735	-1.091808	2.070290	0.214426	0.005227	0.165191	-63.319441	-78.071548	-26.893562	39.979040370	116.338885252	50.873163
62545	19269674	7.246729	-1.035389	2.083804	0.217500	0.023122	0.158918	-63.324416	-78.050439	-26.856662	39.979040396	116.338885248	50.881926
62546	19269699	7.235799	-0.946016	2.096075	0.212841	0.036176	0.158557	-63.322013	-78.028540	-26.827994	39.979040423	116.338885245	50.881277
62547	19269724	7.218024	-0.845576	2.100358	0.215918	0.043185	0.161274	-63.315719	-78.005843	-26.802850	39.979040449	116.338885242	50.880613
62548	19269749	7.251156	-0.809787	2.097837	0.222367	0.059794	0.162131	-63.298739	-77.981968	-26.787685	39.979040476	116.338885239	50.879935
62549	19269774	7.234631	-0.844080	2.069764	0.222027	0.069585	0.164382	-63.276616	-77.957176	-26.777827	39.979040502	116.338885235	50.879241
62550	19269799	7.240206	-0.828877	2.057855	0.223793	0.080922	0.156091	-63.244982	-77.932716	-26.777435	39.979040529	116.338885232	50.878533
62551	19269824	7.299515	-0.799985	2.052689	0.216897	0.091864	0.150001	-63.206031	-77.908327	-26.785535	39.979040556	116.338885229	50.877810
62552	19269849	7.314748	-0.738080	2.054223	0.212118	0.104088	0.149012	-63.160280	-77.883275	-26.801291	39.979040582	116.338885226	50.877072
62553	19269874	7.335387	-0.743613	2.066186	0.213537	0.113273	0.148901	-63.108959	-77.857638	-26.822535	39.979040609	116.338885223	50.879055
62554	19269899	7.379473	-0.723077	2.082223	0.201283	0.120541	0.146727	-63.054588	-77.831804	-26.848698	39.979040636	116.338885220	50.878292
62555	19269924	7.430499	-0.707896	2.075659	0.201367	0.125706	0.144278	-62.996588	-77.805942	-26.878566	39.979040663	116.338885217	50.877515
62556	19269949	7.492519	-0.702391	2.078377	0.200833	0.131835	0.138865	-62.933609	-77.780365	-26.913607	39.979040691	116.338885215	50.876725
62557	19269974	7.540703	-0.709370	2.091667	0.198892	0.137788	0.138347	-62.867459	-77.754457	-26.952182	39.979040718	116.338885212	50.875922
62558	19269999	7.580560	-0.742479	2.116860	0.185557	0.141703	0.136292	-62.800526	-77.728545	-26.993518	39.979040745	116.338885209	50.875106
62559	19270024	7.616353	-0.767280	2.116788	0.184225	0.144921	0.135151	-62.731785	-77.702558	-27.036901	39.979040773	116.338885206	50.874276
62560	19270049	7.654850	-0.782502	2.140708	0.178419	0.150108	0.133972	-62.660735	-77.676369	-27.083506	39.979040800	116.338885204	50.873434
62561	19270074	7.661648	-0.803241	2.168571	0.163223	0.153920	0.129262	-62.588466	-77.650513	-27.133584	39.979040827	116.338885201	50.876530
62562	19270099	7.719436	-0.818533	2.192491	0.152656	0.150570	0.124849	-62.518582	-77.625428	-27.182780	39.979040855	116.338885199	50.875669
62563	19270124	7.729042	-0.828166	2.203117	0.147006	0.151211	0.132661	-62.451730	-77.599296	-27.229706	39.979040883	116.338885196	50.874795
62564	19270149	7.770180	-0.869694	2.261495	0.130013	0.151688	0.133158	-62.387423	-77.573057	-27.276524	39.979040911	116.338885194	50.873910
62565	19270174	7.803022	-0.926334	2.321203	0.119352	0.147358	0.130814	-62.326655	-77.547393	-27.321284	39.979040938	116.338885191	50.873015
62566	19270199	7.800137	-0.980106	2.348913	0.102358	0.144419	0.131938	-62.270558	-77.521772	-27.363759	39.979040966	116.338885189	50.872108
62567	19270224	7.822041	-1.014653	2.380748	0.095697	0.141355	0.125794	-62.215515	-77.497125	-27.406136	39.979040994	116.338885187	50.871190
62568	19270249	7.883975	-1.007905	2.415393	0.082357	0.136916	0.128272	-62.165849	-77.472453	-27.444966	39.979041023	116.338885185	50.870261
62569	19270274	7.947199	-1.052111	2.456510	0.073446	0.130102	0.133048	-62.122937	-77.447624	-27.478185	39.979041051	116.338885182	50.872262
62570	19270299	7.956667	-1.064755	2.521641	0.076231	0.118782	0.138736	-62.087914	-77.422830	-27.502919	39.979041079	116.338885180	50.871317
62571	19270324	8.004812	-1.107443	2.530848	0.069451	0.117762	0.137554	-62.054200	-77.398250	-27.527309	39.979041107	116.338885178	50.870361
62572	19270349	8.051504	-1.163985	2.563938	0.070453	0.107959	0.138640	-62.026318	-77.374188	-27.545579	39.979041136	116.338885176	50.869397
62573	19270374	8.121588	-1.184897	2.629063	0.067787	0.096743	0.138006	-62.005036	-77.350959	-27.557478	39.979041164	116.338885174	50.868426
62574	19270399	8.209744	-1.194578	2.638387	0.064437	0.090472	0.141443	-61.988848	-77.327716	-27.564648	39.979041193	116.338885172	50.867444
62575	19270424	8.301936	-1.208537	2.682291	0.061654	0.082810	0.141057	-61.977288	-77.305037	-27.567485	39.979041222	116.338885170	50.866455
62576	19270449	8.413456	-1.200466	2.730257	0.061619	0.073422	0.147979	-61.973081	-77.282115	-27.562788	39.979041251	116.338885168	50.865458
62577	19270474	8.518163	-1.179908	2.752992	0.059606	0.061910	0.148423	-61.975704	-77.259906	-27.551368	39.979041280	116.338885166	50.877601
62578	19270499	8.629783	-1.155209	2.762466	0.069670	0.049728	0.152096	-61.984783	-77.238058	-27.531867	39.979041309	116.338885164	50.876607
62579	19270524	8.738615	-1.125093	2.793213	0.077257	0.042136	0.148715	-61.995957	-77.217146	-27.509101	39.979041338	116.338885162	50.875608
62580	19270549	8.847390	-1.101897	2.843893	0.082082	0.036757	0.153409	-62.010768	-77.196002	-27.481896	39.979041367	116.338885160	50.874605
62581	19270574	8.938336	-1.078549	2.853374	0.092362	0.032435	0.152995	-62.026318	-77.175199	-27.452421	39.979041397	116.338885159	50.873601
62582	19270599	9.051220	-1.103485	2.890560	0.102896	0.026217	0.148752	-62.042488	-77.155348	-27.420758	39.979041426	116.338885157	50.872591
62583	19270624	9.135251	-1.074709	2.915989	0.105891	0.020817	0.139864	-62.058537	-77.136983	-27.388779	39.979041456	116.338885155	50.871578
62584	19270649	9.281203	-1.099627	2.949253	0.112890	0.018767	0.138484	-62.074246	-77.118928	-27.356117	39.979041486	116.338885154	50.870563
62585	19270674	9.417745	-1.011595	2.952258	0.122321	0.013548	0.133292	-62.089903	-77.101878	-27.322121	39.979041516	116.338885152	50.869137
62586	19270699	9.565183	-0.992397	2.968401	0.120552	0.012915	0.132409	-62.105839	-77.084981	-27.288096	39.979041546	116.338885151	50.868120
62587	19270724	9.708379	-1.020059	2.998976	0.122301	0.013992	0.124010	-62.118415	-77.069072	-27.257259	39.979041576	116.338885149	50.867104
62589	19270749	9.857092	-1.068358	3.018822	0.111726	0.017057	0.123560	-62.130632	-77.053014	-27.228342	39.979041606	116.338885148	50.866089
62591	19270774	10.004449	-1.108302	3.026810	0.104092	0.023985	0.119795	-62.123300	-77.034104	-27.241467	39.979041080	116.338885249	50.861235
62592	19270799	10.128440	-1.098793	3.042835	0.093496	0.027092	0.110416	-62.128713	-77.019038	-27.222209	39.979041110	116.338885248	50.860266
62593	19270824	10.219271	-1.141549	3.064075	0.074089	0.033019	0.106744	-62.132557	-77.004040	-27.207412	39.979041140	116.338885247	50.859301
62594	19270849	10.380292	-1.194081	3.119835	0.051242	0.043502	0.109832	-62.134800	-76.987948	-27.197616	39.979041170	116.338885246	50.858342
62595	19270874	10.528913	-1.269948	3.156897	0.024015	0.052090	0.109054	-62.136010	-76.971381	-27.192888	39.979041201	116.338885245	50.852918
62596	19270899	10.636124	-1.378812	3.203185	0.004335	0.063631	0.099596	-62.130979	-76.955238	-27.197454	39.979041231	116.338885244	50.851966
62597	19270924	10.770972	-1.434110	3.246941	-0.019234	0.073546	0.099030	-62.123759	-76.938503	-27.207733	39.979041262	116.338885243	50.851022
62598	19270949	10.931893	-1.488113	3.341268	-0.056581	0.080426	0.097418	-62.117693	-76.921510	-27.222320	39.979041293	116.338885243	50.850087
62599	19270974	11.063938	-1.531140	3.418328	-0.084233	0.084586	0.089352	-62.111026	-76.905260	-27.241592	39.979041324	116.338885242	50.849166
62600	19270999	11.169852	-1.516320	3.504902	-0.108807	0.088142	0.091484	-62.106588	-76.888501	-27.262190	39.979041355	116.338885241	50.848251
62601	19271024	11.270253	-1.526233	3.578089	-0.123985	0.094923	0.094119	-62.101432	-76.870954	-27.285759	39.979041386	116.338885241	50.847348
62602	19271049	11.367815	-1.548646	3.679132	-0.138380	0.096381	0.088482	-62.095966	-76.854022	-27.311765	39.979041417	116.338885240	50.846456
62603	19271074	11.426933	-1.487076	3.769807	-0.137930	0.094143	0.090942	-62.092381	-76.836926	-27.335767	39.979041449	116.338885240	50.852210
62604	19271099	11.481792	-1.513648	3.854863	-0.150883	0.087009	0.102974	-62.098000	-76.818787	-27.352232	39.979041480	116.338885239	50.851351
62605	19271124	11.539219	-1.600801	3.987612	-0.166403	0.076872	0.113541	-62.114348	-76.799991	-27.359962	39.979041512	116.338885239	50.850505
62606	19271149	11.578907	-1.642449	4.072620	-0.180483	0.068925	0.118655	-62.138441	-76.781080	-27.361809	39.979041544	116.338885239	50.849674
62607	19271174	11.611606	-1.678724	4.206827	-0.200881	0.053030	0.125232	-62.175852	-76.762399	-27.352976	39.979041576	116.338885239	50.848858
62608	19271199	11.615365	-1.702649	4.351688	-0.219765	0.037567	0.131567	-62.226014	-76.743948	-27.333821	39.979041608	116.338885238	50.848055
62609	19271224	11.650835	-1.749872	4.465945	-0.241378	0.011349	0.146374	-62.297449	-76.725362	-27.295989	39.979041640	116.338885238	50.847267
62610	19271249	11.676569	-1.813770	4.610721	-0.274380	-0.012696	0.153045	-62.388248	-76.707517	-27.243116	39.979041673	116.338885238	50.846493
62611	19271274	11.732785	-1.856750	4.703684	-0.295201	-0.043909	0.168931	-62.503029	-76.689698	-27.168652	39.979041706	116.338885238	50.852397
62612	19271299	11.793108	-1.924522	4.789943	-0.319746	-0.079651	0.178255	-62.642867	-76.673016	-27.072054	39.979041739	116.338885238	50.851662
62613	19271324	11.848042	-1.960513	4.841726	-0.336349	-0.112745	0.187518	-62.805120	-76.657269	-26.954859	39.979041772	116.338885238	50.850944
62614	19271349	11.868670	-1.952334	4.864384	-0.351281	-0.150332	0.205591	-62.994333	-76.641587	-26.812145	39.979041805	116.338885238	50.850242
62615	19271374	11.900291	-1.957920	4.884362	-0.356938	-0.185455	0.215818	-63.205632	-76.626760	-26.647553	39.979041839	116.338885238	50.849557
62616	19271399	11.904418	-1.964818	4.886976	-0.355569	-0.208023	0.227156	-63.431520	-76.611788	-26.467754	39.979041872	116.338885239	50.848889
62617	19271424	11.876850	-1.996391	4.868273	-0.353335	-0.231105	0.242458	-63.673151	-76.596156	-26.271431	39.979041906	116.338885239	50.848237
62618	19271449	11.846704	-1.970023	4.816469	-0.341357	-0.252318	0.244705	-63.924588	-76.581382	-26.063251	39.979041940	116.338885239	50.847602
62619	19271474	11.810906	-1.990544	4.785826	-0.331204	-0.260271	0.259678	-64.182261	-76.564962	-25.847145	39.979041975	116.338885239	50.851464
62620	19271499	11.765610	-1.999900	4.708631	-0.335242	-0.264035	0.270014	-64.444649	-76.547215	-25.626777	39.979042009	116.338885240	50.850866
62621	19271524	11.783561	-2.002558	4.690005	-0.328089	-0.265962	0.272584	-64.707075	-76.529020	-25.405300	39.979042044	116.338885240	50.850284
62622	19271549	11.783693	-1.961182	4.663543	-0.325456	-0.265780	0.276501	-64.969362	-76.510070	-25.183560	39.979042079	116.338885241	50.849718
62623	19271574	11.849946	-1.910213	4.646481	-0.318186	-0.256987	0.283843	-65.227006	-76.489401	-24.965506	39.979042114	116.338885241	50.849168
62624	19271599	11.883155	-1.927846	4.587918	-0.305843	-0.250676	0.287078	-65.479539	-76.467708	-24.750871	39.979042149	116.338885242	50.848634
62625	19271624	11.975655	-1.968759	4.484130	-0.293236	-0.250040	0.288312	-65.729478	-76.445596	-24.537027	39.979042185	116.338885242	50.848117
62626	19271649	12.101331	-2.017818	4.349713	-0.294991	-0.237499	0.287414	-65.971902	-76.422652	-24.331152	39.979042221	116.338885243	50.847617
62627	19271674	12.268325	-2.099846	4.192626	-0.308205	-0.218673	0.286673	-66.205083	-76.398511	-24.136710	39.979042256	116.338885244	50.849453
62628	19271699	12.472487	-2.232785	4.028707	-0.324643	-0.200067	0.286979	-66.429861	-76.373078	-23.953319	39.979042292	116.338885244	50.848992
62629	19271724	12.699961	-2.472935	3.849834	-0.356017	-0.174500	0.289862	-66.645205	-76.345642	-23.784240	39.979042329	116.338885245	50.848553
62630	19271749	12.945344	-2.713184	3.660299	-0.405037	-0.152348	0.291601	-66.855214	-76.316577	-23.627857	39.979042365	116.338885246	50.848136
62631	19271774	13.194860	-2.939585	3.484176	-0.474428	-0.125878	0.292237	-67.060219	-76.285810	-23.486836	39.979042401	116.338885247	50.847751
62632	19271799	13.435995	-3.196469	3.341159	-0.546022	-0.096221	0.293733	-67.259022	-76.253080	-23.362737	39.979042438	116.338885247	50.847383
62633	19271824	13.679841	-3.463013	3.207416	-0.621587	-0.066283	0.304870	-67.454227	-76.217125	-23.253467	39.979042475	116.338885248	50.847043
62634	19271849	13.927809	-3.743271	3.076248	-0.697936	-0.049694	0.317024	-67.653332	-76.178564	-23.151426	39.979042511	116.338885249	50.846732
62635	19271874	14.137309	-4.005489	2.914591	-0.769027	-0.028896	0.315701	-67.850311	-76.138967	-23.062047	39.979042548	116.338885250	50.845512
62636	19271899	14.328959	-4.203072	2.743774	-0.821439	-0.013308	0.314906	-68.045436	-76.098565	-22.982294	39.979042585	116.338885250	50.845264
62637	19271924	14.497472	-4.295906	2.525438	-0.866415	0.005849	0.316364	-68.236256	-76.056882	-22.913598	39.979042622	116.338885251	50.845049
62638	19271949	14.649470	-4.392759	2.300504	-0.894660	0.022338	0.318462	-68.421981	-76.013995	-22.854311	39.979042659	116.338885251	50.844869
62639	19271974	14.792006	-4.386342	2.061196	-0.901734	0.046334	0.312615	-68.593949	-75.970582	-22.810234	39.979042696	116.338885252	50.844728
62640	19271999	14.838351	-4.272415	1.768977	-0.870656	0.064664	0.308134	-68.750124	-75.926783	-22.777840	39.979042733	116.338885252	50.844619
62641	19272024	14.890417	-4.077176	1.447868	-0.813003	0.082389	0.295693	-68.885503	-75.883707	-22.758367	39.979042771	116.338885253	50.844546
62642	19272049	14.830910	-3.858516	1.122704	-0.731935	0.105478	0.296122	-68.996676	-75.839376	-22.751878	39.979042808	116.338885253	50.844507
62643	19272074	14.727284	-3.687914	0.777447	-0.638963	0.140053	0.287208	-69.074111	-75.794463	-22.766449	39.979042845	116.338885253	50.845824
62644	19272099	14.648605	-3.474577	0.399073	-0.517812	0.172299	0.285114	-69.116620	-75.748185	-22.799152	39.979042882	116.338885253	50.845854
62645	19272124	14.505259	-3.269257	-0.023256	-0.394340	0.213809	0.276560	-69.117932	-75.700936	-22.856122	39.979042919	116.338885254	50.845917
62646	19272149	14.381093	-3.061404	-0.400342	-0.265338	0.255932	0.262834	-69.076198	-75.653366	-22.938461	39.979042956	116.338885254	50.846010
62647	19272174	14.186495	-2.914143	-0.748381	-0.144835	0.313933	0.243306	-68.983508	-75.605412	-23.055601	39.979042993	116.338885254	50.846125
62648	19272199	13.983550	-2.762936	-1.057907	-0.020948	0.369544	0.221106	-68.840496	-75.557497	-23.206402	39.979043030	116.338885255	50.846275
62649	19272224	13.759821	-2.635211	-1.338243	0.084588	0.419125	0.192422	-68.651973	-75.510730	-23.388623	39.979043066	116.338885255	50.846451
62650	19272249	13.501595	-2.525356	-1.612042	0.177704	0.469434	0.165331	-68.419971	-75.464769	-23.602018	39.979043103	116.338885255	50.846652
62651	19272274	13.224113	-2.400387	-1.896414	0.252590	0.531319	0.135326	-68.140856	-75.419281	-23.853039	39.979043139	116.338885256	50.854806
62652	19272299	12.873450	-2.242737	-2.091571	0.321820	0.577626	0.101572	-67.822974	-75.375463	-24.133936	39.979043175	116.338885256	50.855057
62653	19272324	12.506203	-2.120759	-2.292209	0.368550	0.634608	0.068077	-67.464365	-75.332560	-24.450063	39.979043211	116.338885257	50.855326
62654	19272349	12.145494	-2.125651	-2.433493	0.421879	0.681107	0.029111	-67.068449	-75.291705	-24.796923	39.979043246	116.338885258	50.855609
62655	19272374	11.811010	-2.064630	-2.543888	0.452487	0.721750	-0.017245	-66.639913	-75.254037	-25.173040	39.979043282	116.338885258	50.855894
