PacketCounter	SampleTimeFine	Acc_X	Acc_Y	Acc_Z	Gyr_X	Gyr_Y	Gyr_Z	Roll	Pitch	Yaw	Latitude	Longitude	Altitude
41265	20354374	9.412167	-0.946583	2.471179	-0.012220	-0.042854	0.018227	-21.536464	-74.614749	118.076776	39.979543006	116.338914346	50.337779
41266	20354399	9.414935	-0.920486	2.480581	-0.010991	-0.043260	0.012772	-21.551829	-74.620625	118.091038	39.979543002	116.338914349	50.337593
41267	20354424	9.399678	-0.938472	2.513747	-0.011750	-0.034948	0.021429	-21.569916	-74.624936	118.108010	39.979542998	116.338914352	50.337408
41268	20354449	9.407916	-0.926186	2.529768	-0.009993	-0.036687	0.015666	-21.585303	-74.629781	118.122441	39.979542994	116.338914356	50.337222
41269	20354474	9.412057	-0.923424	2.531084	-0.014754	-0.028691	0.016250	-21.600129	-74.633529	118.135584	39.979542990	116.338914359	50.337545
41270	20354499	9.405112	-0.924874	2.553688	-0.018069	-0.025719	0.019488	-21.616436	-74.636710	118.149770	39.979542986	116.338914363	50.337359
41271	20354524	9.400945	-0.924919	2.568320	-0.020233	-0.031172	0.015078	-21.631970	-74.640848	118.162832	39.979542982	116.338914366	50.337174
41272	20354549	9.391339	-0.886433	2.573750	-0.031750	-0.029209	0.014040	-21.648280	-74.644779	118.174989	39.979542978	116.338914370	50.336988
41273	20354574	9.405139	-0.876774	2.572447	-0.037065	-0.027485	0.018395	-21.667139	-74.648250	118.188999	39.979542974	116.338914373	50.336802
41274	20354599	9.407802	-0.900267	2.593673	-0.037569	-0.025767	0.014812	-21.684008	-74.651680	118.200870	39.979542970	116.338914377	50.336617
41275	20354624	9.417415	-0.898940	2.606996	-0.036909	-0.024661	0.012617	-21.699512	-74.655078	118.211423	39.979542967	116.338914380	50.336431
41276	20354649	9.417363	-0.942939	2.600209	-0.043724	-0.022157	0.014193	-21.716278	-74.658059	118.222273	39.979542963	116.338914383	50.336245
41277	20354674	9.436681	-0.951166	2.588201	-0.049892	-0.025719	0.012705	-21.733899	-74.661592	118.233094	39.979542959	116.338914387	50.329999
41278	20354699	9.428392	-0.944300	2.600217	-0.051586	-0.024696	0.009172	-21.749858	-74.665175	118.241938	39.979542955	116.338914390	50.329807
41279	20354724	9.436692	-0.936067	2.594891	-0.054351	-0.022148	0.009841	-21.766049	-74.668383	118.250614	39.979542951	116.338914394	50.329616
41280	20354749	9.455963	-0.951160	2.589571	-0.058980	-0.012299	0.007094	-21.779667	-74.670426	118.255932	39.979542946	116.338914397	50.329424
41281	20354774	9.444977	-0.949726	2.577570	-0.055301	-0.013347	0.005366	-21.792125	-74.672700	118.260595	39.979542942	116.338914401	50.329233
41282	20354799	9.447688	-0.985529	2.573496	-0.056110	-0.007275	0.004600	-21.803151	-74.674207	118.263652	39.979542938	116.338914404	50.329043
41283	20354824	9.460159	-0.990905	2.542879	-0.049423	-0.005773	0.003959	-21.812617	-74.675549	118.266086	39.979542934	116.338914408	50.328852
41284	20354849	9.460165	-1.001893	2.537498	-0.052385	0.002323	0.007010	-21.822417	-74.675651	118.268425	39.979542930	116.338914411	50.328662
41285	20354874	9.458766	-1.010134	2.538825	-0.039321	0.010853	0.002708	-21.826599	-74.674848	118.266881	39.979542926	116.338914414	50.322593
41286	20354899	9.460137	-1.022534	2.536115	-0.026302	0.016718	0.001927	-21.827399	-74.673307	118.263762	39.979542922	116.338914418	50.322397
41287	20354924	9.456037	-1.040306	2.509471	-0.018163	0.018793	0.001924	-21.826628	-74.671490	118.260224	39.979542918	116.338914421	50.322201
41288	20354949	9.447789	-1.019658	2.510879	-0.011267	0.020725	-0.003865	-21.821687	-74.669724	118.253386	39.979542914	116.338914425	50.322006
41289	20354974	9.420268	-0.996297	2.509604	0.000536	0.025566	-0.000954	-21.815529	-74.667160	118.247038	39.979542910	116.338914428	50.321810
41290	20354999	9.431244	-1.016952	2.517497	0.009759	0.029756	-0.003836	-21.805841	-74.664191	118.238401	39.979542906	116.338914432	50.321614
41291	20355024	9.395482	-1.001741	2.502889	0.018880	0.032075	-0.000437	-21.796049	-74.660733	118.231010	39.979542902	116.338914435	50.321419
41292	20355049	9.387230	-0.978336	2.502993	0.028253	0.035392	-0.002374	-21.783337	-74.656936	118.221983	39.979542898	116.338914439	50.321223
41293	20355074	9.409262	-0.977044	2.512293	0.034432	0.035840	-0.005655	-21.768068	-74.653253	118.211222	39.979542893	116.338914442	50.324181
41294	20355099	9.374843	-0.950859	2.516354	0.045908	0.028998	-0.004619	-21.752986	-74.650425	118.202361	39.979542889	116.338914446	50.323989
41295	20355124	9.365208	-0.944011	2.519028	0.050798	0.032938	-0.003263	-21.737105	-74.647000	118.193396	39.979542885	116.338914449	50.323796
41296	20355149	9.365297	-0.905431	2.507166	0.050503	0.033642	0.000878	-21.723141	-74.643261	118.186376	39.979542881	116.338914453	50.323602
41297	20355174	9.370786	-0.898589	2.519188	0.045498	0.024992	-0.001413	-21.710459	-74.640794	118.179941	39.979542877	116.338914456	50.323408
41298	20355199	9.372143	-0.895872	2.523185	0.044774	0.030960	-0.000483	-21.697183	-74.637483	118.172783	39.979542873	116.338914460	50.323214
41299	20355224	9.369401	-0.890360	2.527179	0.045401	0.030968	-0.000668	-21.683731	-74.634181	118.165535	39.979542869	116.338914463	50.323020
41300	20355249	9.363897	-0.857393	2.541918	0.039290	0.029528	0.000291	-21.671900	-74.631019	118.159060	39.979542865	116.338914467	50.322825
41301	20355274	9.376312	-0.854650	2.537924	0.032084	0.028132	-0.000265	-21.661104	-74.628071	118.152588	39.979542860	116.338914470	50.322420
41302	20355299	9.384558	-0.868431	2.541888	0.025341	0.029151	-0.000508	-21.650963	-74.625001	118.145794	39.979542856	116.338914473	50.322224
41303	20355324	9.385922	-0.864303	2.544574	0.019754	0.029536	-0.000741	-21.641439	-74.621892	118.138810	39.979542852	116.338914477	50.322028
41304	20355349	9.387294	-0.850592	2.559245	0.010741	0.030579	0.000255	-21.633492	-74.618591	118.132122	39.979542848	116.338914480	50.321832
41305	20355374	9.379076	-0.842291	2.547280	0.004204	0.028929	0.003663	-21.628449	-74.615329	118.127475	39.979542844	116.338914484	50.321635
41306	20355399	9.380423	-0.846439	2.555280	-0.002782	0.027664	0.007313	-21.626418	-74.612043	118.124914	39.979542839	116.338914487	50.321438
41307	20355424	9.395534	-0.857497	2.565872	-0.012831	0.026964	0.002147	-21.623463	-74.609123	118.119900	39.979542835	116.338914491	50.321241
41308	20355449	9.394201	-0.864309	2.547236	-0.020723	0.025865	0.004032	-21.622761	-74.606249	118.116053	39.979542831	116.338914494	50.321044
41309	20355474	9.388621	-0.891842	2.551140	-0.021093	0.029555	0.005095	-21.621920	-74.602829	118.112005	39.979542827	116.338914498	50.318456
41310	20355499	9.388585	-0.896048	2.565759	-0.022493	0.029549	0.004455	-21.620973	-74.599442	118.107639	39.979542822	116.338914501	50.318256
41311	20355524	9.392686	-0.908442	2.575015	-0.026363	0.033413	0.004108	-21.619673	-74.595560	118.102333	39.979542818	116.338914504	50.318055
41312	20355549	9.373385	-0.922163	2.564323	-0.028706	0.033839	-0.001067	-21.616128	-74.591894	118.094350	39.979542814	116.338914508	50.317855
41313	20355574	9.384452	-0.923506	2.549679	-0.026460	0.033683	0.001216	-21.613398	-74.588128	118.087544	39.979542810	116.338914511	50.317654
41314	20355599	9.380320	-0.927600	2.547026	-0.022148	0.030203	0.001881	-21.611038	-74.584790	118.081764	39.979542805	116.338914515	50.317453
41315	20355624	9.381672	-0.938621	2.552312	-0.023045	0.034253	0.001620	-21.607908	-74.580927	118.075052	39.979542801	116.338914518	50.317252
41316	20355649	9.372062	-0.946816	2.532315	-0.016496	0.033173	0.001797	-21.604135	-74.577198	118.068645	39.979542797	116.338914521	50.317050
41317	20355674	9.376184	-0.939969	2.537671	-0.015371	0.029269	-0.000766	-21.599712	-74.574124	118.061732	39.979542792	116.338914525	50.312320
41318	20355699	9.373441	-0.952288	2.526983	-0.013091	0.029995	-0.006403	-21.592106	-74.571250	118.051855	39.979542788	116.338914528	50.312113
41319	20355724	9.377674	-0.939775	2.493775	-0.013502	0.026792	-0.008602	-21.584112	-74.568919	118.041514	39.979542784	116.338914532	50.311906
41320	20355749	9.370719	-0.972834	2.497657	-0.011069	0.020666	-0.003241	-21.579528	-74.567120	118.035073	39.979542779	116.338914535	50.311699
41321	20355774	9.374992	-0.957531	2.451174	-0.002612	0.020507	-0.000657	-21.575010	-74.565207	118.029957	39.979542775	116.338914538	50.311491
41324	20355799	9.355632	-0.997438	2.458984	-0.000574	0.026563	-0.001533	-21.568625	-74.562533	118.023206	39.979542771	116.338914542	50.311282
41325	20355824	9.366704	-0.978152	2.447097	0.013649	0.022905	0.000346	-21.561809	-74.560247	118.018121	39.979542766	116.338914545	50.311073
41326	20355849	9.361180	-0.991913	2.447029	0.016922	0.024898	-0.005598	-21.551278	-74.558008	118.009670	39.979542762	116.338914549	50.310864
41327	20355874	9.347485	-0.964276	2.425849	0.030388	0.023884	-0.004549	-21.543180	-74.551877	117.993619	39.979543055	116.338914420	50.330928
41328	20355899	9.350207	-0.967100	2.439145	0.030556	0.022125	-0.003542	-21.532223	-74.549899	117.986751	39.979543051	116.338914423	50.330772
41329	20355924	9.341933	-0.984976	2.436401	0.033264	0.021160	-0.000191	-21.522680	-74.547873	117.981752	39.979543047	116.338914426	50.330616
41330	20355949	9.366790	-0.967017	2.423179	0.039977	0.019303	0.002946	-21.514043	-74.545929	117.978690	39.979543043	116.338914429	50.330459
41331	20355974	9.341916	-0.968529	2.451092	0.039984	0.019307	0.003445	-21.505645	-74.543958	117.975878	39.979543039	116.338914433	50.330302
41332	20355999	9.347337	-0.968662	2.489673	0.031827	0.018051	0.003131	-21.498504	-74.542171	117.973158	39.979543035	116.338914436	50.330144
41333	20356024	9.347306	-0.959088	2.505646	0.034323	0.010085	0.004727	-21.493287	-74.541362	117.972805	39.979543031	116.338914439	50.329985
41334	20356049	9.341771	-0.949507	2.521663	0.022881	0.006291	0.008094	-21.492053	-74.540882	117.974883	39.979543027	116.338914442	50.329826
41335	20356074	9.341704	-0.953738	2.549568	0.027220	0.002605	0.003672	-21.488766	-74.541125	117.975476	39.979543022	116.338914445	50.333312
41336	20356099	9.354034	-0.936010	2.588195	0.025423	-0.000471	0.009249	-21.489007	-74.541485	117.979463	39.979543018	116.338914449	50.333156
41337	20356124	9.348441	-0.934766	2.617450	0.028178	-0.006770	0.007708	-21.489307	-74.542766	117.983920	39.979543014	116.338914452	50.332999
41338	20356149	9.355300	-0.938942	2.628080	0.033805	-0.012195	0.009643	-21.490763	-74.544669	117.990413	39.979543010	116.338914455	50.332842
41339	20356174	9.375948	-0.930695	2.642766	0.035125	-0.019498	0.008717	-21.492971	-74.547593	117.997882	39.979543006	116.338914458	50.332686
41340	20356199	9.409058	-0.897682	2.645541	0.040613	-0.020032	0.011402	-21.495791	-74.550447	118.006802	39.979543002	116.338914462	50.332529
41341	20356224	9.393860	-0.934825	2.641419	0.045981	-0.021055	0.007172	-21.495999	-74.553660	118.013809	39.979542997	116.338914465	50.332372
41342	20356249	9.429716	-0.921081	2.640156	0.038344	-0.026153	0.008562	-21.498941	-74.557479	118.022519	39.979542993	116.338914468	50.332215
41343	20356274	9.415917	-0.910114	2.652167	0.027260	-0.022511	0.009602	-21.503284	-74.560758	118.031033	39.979542989	116.338914471	50.338823
41344	20356299	9.400706	-0.928029	2.661418	0.026745	-0.022459	0.008842	-21.507327	-74.564070	118.039160	39.979542985	116.338914474	50.338673
41345	20356324	9.418758	-0.882522	2.630987	0.018241	-0.023325	0.013489	-21.514998	-74.567253	118.049787	39.979542980	116.338914478	50.338523
41346	20356349	9.402230	-0.856434	2.644367	0.014153	-0.022529	0.011447	-21.522121	-74.570437	118.059238	39.979542976	116.338914481	50.338373
41347	20356374	9.369174	-0.855009	2.640343	0.005679	-0.025417	0.008553	-21.529615	-74.574157	118.067814	39.979542972	116.338914484	50.338222
41348	20356399	9.353972	-0.846861	2.657674	0.001186	-0.023708	0.012408	-21.539292	-74.577447	118.077987	39.979542968	116.338914487	50.338072
41349	20356424	9.325071	-0.838551	2.652344	-0.007357	-0.019534	0.015040	-21.550671	-74.580041	118.088657	39.979542963	116.338914490	50.337921
41350	20356449	9.320948	-0.867353	2.628305	-0.007835	-0.023131	0.011961	-21.561323	-74.583277	118.098501	39.979542959	116.338914494	50.337770
41351	20356474	9.323680	-0.907215	2.616218	-0.016862	-0.018504	0.011320	-21.572079	-74.585929	118.107111	39.979542955	116.338914497	50.340017
41352	20356499	9.322282	-0.920980	2.616176	-0.019981	-0.022331	0.009602	-21.583186	-74.589181	118.115621	39.979542950	116.338914500	50.339868
41353	20356524	9.296062	-0.967726	2.606671	-0.024104	-0.027303	0.007375	-21.594762	-74.593212	118.124006	39.979542946	116.338914503	50.339717
41354	20356549	9.289210	-0.978617	2.580055	-0.021045	-0.027339	0.009409	-21.606895	-74.597140	118.133423	39.979542941	116.338914506	50.339566
41355	20356574	9.272663	-1.003370	2.571983	-0.022034	-0.026299	0.007011	-21.617817	-74.601056	118.141437	39.979542937	116.338914509	50.339413
41356	20356599	9.268550	-1.026688	2.553270	-0.019342	-0.029917	0.010929	-21.630946	-74.605247	118.152139	39.979542933	116.338914513	50.339261
41357	20356624	9.286473	-1.051396	2.527939	-0.013845	-0.032446	0.011666	-21.644136	-74.609734	118.163722	39.979542928	116.338914516	50.339107
41358	20356649	9.285123	-1.048602	2.523935	0.000358	-0.029787	0.016618	-21.657183	-74.613605	118.177266	39.979542924	116.338914519	50.338953
41359	20356674	9.293458	-1.041606	2.498721	0.014642	-0.033036	0.012897	-21.667015	-74.618105	118.189596	39.979542919	116.338914522	50.339048
41360	20356699	9.298993	-1.036103	2.493414	0.034393	-0.030227	0.007838	-21.671035	-74.622497	118.198834	39.979542915	116.338914526	50.338892
41361	20356724	9.325220	-1.003067	2.494869	0.049235	-0.032078	0.011976	-21.675292	-74.626918	118.210521	39.979542911	116.338914529	50.338736
41362	20356749	9.322479	-0.993476	2.494883	0.066279	-0.035730	0.010857	-21.677273	-74.631883	118.222380	39.979542906	116.338914532	50.338579
41363	20356774	9.339035	-0.978319	2.494973	0.081578	-0.042216	0.014503	-21.680082	-74.637518	118.237371	39.979542902	116.338914535	50.338422
41364	20356799	9.365276	-0.926056	2.501787	0.078623	-0.039214	0.015610	-21.683280	-74.642696	118.252324	39.979542897	116.338914538	50.338264
41365	20356824	9.354283	-0.879329	2.516579	0.087357	-0.040901	0.017877	-21.686657	-74.647977	118.268761	39.979542893	116.338914542	50.338106
41366	20356849	9.395597	-0.880725	2.527238	0.088470	-0.038145	0.019771	-21.690267	-74.652791	118.285605	39.979542888	116.338914545	50.337947
41367	20356874	9.388773	-0.835349	2.526050	0.088854	-0.040495	0.015442	-21.692183	-74.658147	118.300748	39.979542884	116.338914548	50.341261
41368	20356899	9.384556	-0.838202	2.556630	0.079550	-0.042500	0.020142	-21.698106	-74.663521	118.318663	39.979542879	116.338914551	50.341106
41369	20356924	9.392793	-0.808047	2.587311	0.069034	-0.044639	0.024021	-21.707840	-74.668973	118.338968	39.979542875	116.338914555	50.340950
41370	20356949	9.396860	-0.819152	2.611207	0.056581	-0.043106	0.023796	-21.718963	-74.674232	118.358864	39.979542870	116.338914558	50.340793
41371	20356974	9.380236	-0.801421	2.653832	0.034957	-0.049652	0.024697	-21.734900	-74.680313	118.380539	39.979542866	116.338914561	50.340637
41372	20356999	9.387126	-0.782187	2.665878	0.021592	-0.046985	0.024025	-21.751923	-74.686074	118.401354	39.979542861	116.338914564	50.340481
41373	20357024	9.403588	-0.783660	2.695132	0.008944	-0.048344	0.025059	-21.771539	-74.691958	118.422978	39.979542857	116.338914567	50.340324
41374	20357049	9.415856	-0.816826	2.725640	0.000571	-0.047366	0.026371	-21.792817	-74.697641	118.445082	39.979542852	116.338914571	50.340168
41375	20357074	9.432282	-0.854068	2.753457	0.001316	-0.046401	0.018966	-21.810217	-74.703587	118.463275	39.979542848	116.338914574	50.333822
41376	20357099	9.433531	-0.883088	2.783949	-0.002444	-0.047755	0.021325	-21.829580	-74.709587	118.482945	39.979542843	116.338914577	50.333660
41377	20357124	9.433435	-0.916220	2.807778	0.011301	-0.043543	0.020175	-21.845608	-74.715085	118.501197	39.979542838	116.338914580	50.333499
41378	20357149	9.437509	-0.946486	2.814312	0.017853	-0.044623	0.020476	-21.861067	-74.720710	118.519832	39.979542834	116.338914583	50.333338
41379	20357174	9.441628	-0.956152	2.814291	0.023228	-0.049964	0.015815	-21.874543	-74.727293	118.537209	39.979542829	116.338914586	50.333178
41380	20357199	9.448563	-0.942317	2.801065	0.027098	-0.050743	0.014839	-21.887155	-74.734030	118.554265	39.979542824	116.338914590	50.333018
41381	20357224	9.459683	-0.932615	2.777131	0.031182	-0.053374	0.013116	-21.898871	-74.741208	118.570998	39.979542820	116.338914593	50.332859
41382	20357249	9.451539	-0.904940	2.734684	0.032145	-0.051117	0.011675	-21.909318	-74.748162	118.586558	39.979542815	116.338914596	50.332700
41383	20357274	9.455838	-0.888223	2.681520	0.025362	-0.053595	0.014766	-21.922742	-74.755279	118.604195	39.979542810	116.338914599	50.329741
41384	20357299	9.458805	-0.852205	2.615161	0.025916	-0.051123	0.010873	-21.933717	-74.762275	118.619376	39.979542805	116.338914602	50.329581
41385	20357324	9.435489	-0.861663	2.567228	0.016227	-0.051340	0.012554	-21.946954	-74.769209	118.635464	39.979542801	116.338914605	50.329420
41386	20357349	9.453507	-0.853206	2.530035	0.020958	-0.054088	0.019316	-21.963369	-74.776145	118.655546	39.979542796	116.338914608	50.329260
41387	20357374	9.441195	-0.853113	2.487483	0.010003	-0.047667	0.012000	-21.976532	-74.782618	118.670631	39.979542791	116.338914612	50.329099
41388	20357399	9.444135	-0.834960	2.427660	0.006679	-0.044167	0.008832	-21.987946	-74.788796	118.683408	39.979542786	116.338914615	50.328939
41389	20357424	9.404261	-0.834831	2.390414	0.005047	-0.041565	0.009066	-21.999203	-74.794615	118.695782	39.979542781	116.338914618	50.328778
41390	20357449	9.384955	-0.856802	2.383665	0.004676	-0.043324	0.014150	-22.013355	-74.800394	118.711100	39.979542777	116.338914621	50.328617
41391	20357474	9.378112	-0.882823	2.351670	0.005983	-0.035301	0.012711	-22.025041	-74.805184	118.724056	39.979542772	116.338914624	50.327901
41392	20357499	9.362964	-0.893830	2.342312	0.013526	-0.036040	0.010887	-22.034908	-74.810169	118.736246	39.979542767	116.338914627	50.327738
41393	20357524	9.356048	-0.889687	2.352977	0.010683	-0.031550	0.006147	-22.041981	-74.814812	118.745119	39.979542762	116.338914630	50.327574
41394	20357549	9.340863	-0.911720	2.351537	0.015026	-0.027756	0.010008	-22.049574	-74.818744	118.755176	39.979542757	116.338914633	50.327410
41395	20357574	9.328383	-0.922851	2.375446	0.024064	-0.025526	0.003922	-22.052457	-74.822707	118.761693	39.979542753	116.338914636	50.327245
41396	20357599	9.342163	-0.903585	2.387477	0.024083	-0.025749	0.005367	-22.056091	-74.826622	118.768991	39.979542748	116.338914640	50.327079
41397	20357624	9.307692	-0.902251	2.395445	0.024641	-0.024934	0.005117	-22.059364	-74.830442	118.775997	39.979542743	116.338914643	50.326912
41398	20357649	9.295232	-0.905080	2.418037	0.035930	-0.024422	0.006400	-22.061548	-74.834124	118.783552	39.979542738	116.338914646	50.326745
41399	20357674	9.317221	-0.888695	2.451359	0.032628	-0.026731	0.008200	-22.065549	-74.838017	118.792497	39.979542733	116.338914649	50.328225
41400	20357699	9.293666	-0.902626	2.497851	0.030112	-0.028136	0.007364	-22.069783	-74.842140	118.801311	39.979542728	116.338914652	50.328057
41401	20357724	9.282689	-0.870994	2.499264	0.031202	-0.025035	0.007179	-22.073157	-74.845862	118.809396	39.979542724	116.338914655	50.327888
41402	20357749	9.289495	-0.847744	2.541926	0.032991	-0.025928	0.006880	-22.076309	-74.849718	118.817515	39.979542719	116.338914658	50.327719
41403	20357774	9.277052	-0.829973	2.573877	0.028969	-0.021657	0.004144	-22.077848	-74.853155	118.823367	39.979542714	116.338914661	50.327549
41404	20357799	9.290783	-0.845150	2.581817	0.030185	-0.025310	0.005664	-22.080687	-74.856995	118.830747	39.979542709	116.338914664	50.327378
41405	20357824	9.294826	-0.812356	2.639132	0.024635	-0.023223	0.004803	-22.083486	-74.860603	118.837261	39.979542704	116.338914667	50.327206
41406	20357849	9.292052	-0.779397	2.661846	0.025086	-0.026423	0.006756	-22.087819	-74.864532	118.845430	39.979542699	116.338914670	50.327033
41407	20357874	9.296042	-0.805703	2.704336	0.026330	-0.022620	0.010972	-22.093288	-74.867728	118.854960	39.979542694	116.338914673	50.331748
41408	20357899	9.295859	-0.870523	2.743992	0.033179	-0.020804	0.014167	-22.098984	-74.870510	118.865743	39.979542689	116.338914676	50.331580
41409	20357924	9.322028	-0.858194	2.754711	0.034149	-0.026268	0.013173	-22.105147	-74.874072	118.877153	39.979542684	116.338914679	50.331410
41410	20357949	9.301310	-0.837684	2.785337	0.032075	-0.032072	0.010648	-22.111530	-74.878539	118.888482	39.979542679	116.338914682	50.331241
41411	20357974	9.326147	-0.817061	2.788077	0.030237	-0.034496	0.013211	-22.119924	-74.883189	118.901622	39.979542674	116.338914685	50.331071
41412	20357999	9.348161	-0.830812	2.794690	0.031848	-0.036408	0.012664	-22.128207	-74.888122	118.914886	39.979542669	116.338914688	50.330901
41413	20358024	9.346812	-0.818422	2.785436	0.028613	-0.045529	0.016414	-22.140627	-74.894063	118.931955	39.979542664	116.338914691	50.330731
41414	20358049	9.371694	-0.805949	2.764201	0.019723	-0.042452	0.013892	-22.152478	-74.899730	118.947114	39.979542659	116.338914694	50.330560
41415	20358074	9.375870	-0.803152	2.749597	0.021559	-0.044693	0.016798	-22.165953	-74.905536	118.964228	39.979542654	116.338914697	50.336285
41416	20358099	9.402194	-0.790580	2.700435	0.019006	-0.041758	0.013700	-22.177693	-74.911120	118.979165	39.979542649	116.338914700	50.336121
41417	20358124	9.391183	-0.812513	2.676426	0.015029	-0.038502	0.014985	-22.189991	-74.916202	118.994090	39.979542644	116.338914703	50.335956
41418	20358149	9.427122	-0.798631	2.645870	0.010790	-0.037155	0.011684	-22.201010	-74.921282	119.007062	39.979542638	116.338914706	50.335792
41419	20358174	9.410636	-0.827376	2.604561	0.010718	-0.037555	0.010365	-22.211479	-74.926487	119.019452	39.979542633	116.338914709	50.335627
41420	20358199	9.413508	-0.796999	2.575426	0.000757	-0.032574	0.012475	-22.223419	-74.930916	119.031889	39.979542628	116.338914712	50.335463
41421	20358224	9.419053	-0.831275	2.542055	0.001889	-0.032063	0.012551	-22.235139	-74.935273	119.044265	39.979542623	116.338914715	50.335298
41422	20358249	9.398407	-0.850431	2.523338	0.001229	-0.027063	0.012355	-22.245856	-74.938977	119.055504	39.979542618	116.338914718	50.335134
41423	20358274	9.397044	-0.854566	2.510035	0.000444	-0.026974	0.009957	-22.255492	-74.942798	119.065507	39.979542612	116.338914721	50.335325
41424	20358299	9.405316	-0.860035	2.511348	-0.003363	-0.023890	0.008169	-22.264174	-74.946308	119.073957	39.979542607	116.338914724	50.335160
41427	20358324	9.384700	-0.854454	2.488752	-0.003068	-0.028004	0.012694	-22.275879	-74.950116	119.085581	39.979542602	116.338914727	50.334995
41428	20358349	9.408181	-0.861251	2.466133	-0.000253	-0.023030	0.011016	-22.285355	-74.953356	119.095314	39.979542597	116.338914730	50.334829
41429	20358374	9.375105	-0.880477	2.455386	-0.001104	-0.022031	0.009634	-22.289725	-74.955921	119.104342	39.979542667	116.338915041	50.345731
41430	20358399	9.394409	-0.857089	2.463478	0.004767	-0.024782	0.008672	-22.297686	-74.959519	119.113251	39.979542661	116.338915044	50.345594
41431	20358424	9.365583	-0.833579	2.428955	0.006154	-0.025001	0.015026	-22.308632	-74.962802	119.125456	39.979542656	116.338915047	50.345456
41432	20358449	9.382077	-0.858360	2.435536	0.010811	-0.021730	0.009847	-22.315697	-74.965931	119.134334	39.979542651	116.338915050	50.345318
41433	20358474	9.361387	-0.869392	2.435475	0.014003	-0.024781	0.013706	-22.324831	-74.969255	119.145827	39.979542646	116.338915053	50.341256
41434	20358499	9.346205	-0.847434	2.454186	0.018957	-0.015451	0.011036	-22.330050	-74.971488	119.154002	39.979542640	116.338915056	50.341113
41435	20358524	9.346205	-0.843330	2.460829	0.024734	-0.016755	0.009198	-22.333801	-74.973993	119.161513	39.979542635	116.338915059	50.340969
41436	20358549	9.339260	-0.831049	2.488796	0.021796	-0.012289	0.014949	-22.339908	-74.975593	119.171027	39.979542630	116.338915062	50.340825
41437	20358574	9.332236	-0.838117	2.539323	0.022785	-0.010908	0.014202	-22.345226	-74.977051	119.179871	39.979542625	116.338915065	50.340680
41438	20358599	9.308730	-0.845110	2.568521	0.019278	-0.012332	0.016059	-22.352253	-74.978596	119.189964	39.979542619	116.338915068	50.340534
41439	20358624	9.315508	-0.816456	2.631119	0.019971	-0.013278	0.020275	-22.361456	-74.980036	119.202413	39.979542614	116.338915071	50.340388
41440	20358649	9.304416	-0.816540	2.655075	0.020181	-0.014751	0.019397	-22.370498	-74.981718	119.214726	39.979542609	116.338915074	50.340241
41441	20358674	9.293343	-0.785027	2.693732	0.014600	-0.016007	0.023563	-22.382653	-74.983340	119.229435	39.979542603	116.338915077	50.335236
41442	20358699	9.282236	-0.792029	2.726947	0.017639	-0.017527	0.019819	-22.392836	-74.985366	119.242553	39.979542598	116.338915080	50.335083
41443	20358724	9.244935	-0.782563	2.770864	0.010431	-0.020052	0.023907	-22.406588	-74.987503	119.258297	39.979542593	116.338915082	50.334930
41444	20358749	9.258685	-0.796351	2.774783	0.013332	-0.026709	0.023811	-22.421238	-74.990525	119.275399	39.979542587	116.338915085	50.334775
41445	20358774	9.250444	-0.772943	2.776227	0.007659	-0.031225	0.026156	-22.438785	-74.994016	119.294661	39.979542582	116.338915088	50.334620
41446	20358799	9.276612	-0.778454	2.778867	0.014657	-0.037931	0.023329	-22.455312	-74.998548	119.313903	39.979542576	116.338915091	50.334464
41447	20358824	9.262824	-0.781232	2.781523	0.011314	-0.042552	0.023431	-22.473323	-75.003684	119.334186	39.979542571	116.338915094	50.334307
41448	20358849	9.275293	-0.797620	2.746862	0.011310	-0.047740	0.027770	-22.494554	-75.009267	119.357801	39.979542565	116.338915097	50.334150
41449	20358874	9.307069	-0.779603	2.720366	0.010370	-0.044619	0.020790	-22.511846	-75.014819	119.377198	39.979542560	116.338915100	50.328220
41450	20358899	9.318165	-0.779504	2.692438	0.010936	-0.044359	0.021109	-22.529175	-75.020317	119.396717	39.979542554	116.338915102	50.328056
41451	20358924	9.312754	-0.771122	2.653919	0.013617	-0.040720	0.023200	-22.546420	-75.025217	119.416547	39.979542548	116.338915105	50.327892
41452	20358949	9.319724	-0.776496	2.618006	0.017148	-0.037473	0.020400	-22.561119	-75.029840	119.434263	39.979542543	116.338915108	50.327727
41453	20358974	9.355607	-0.787380	2.592709	0.017220	-0.030825	0.020272	-22.574386	-75.033589	119.450508	39.979542537	116.338915111	50.327561
41454	20358999	9.372189	-0.781870	2.576752	0.025398	-0.025922	0.022277	-22.586473	-75.036579	119.466743	39.979542532	116.338915114	50.327395
41455	20359024	9.383189	-0.799722	2.571405	0.034086	-0.026712	0.021091	-22.596896	-75.039737	119.482545	39.979542526	116.338915116	50.327229
41456	20359049	9.408107	-0.759746	2.552912	0.029375	-0.019330	0.018726	-22.605307	-75.042049	119.495565	39.979542520	116.338915119	50.327062
41457	20359074	9.392971	-0.783062	2.530243	0.034693	-0.017971	0.021029	-22.613819	-75.044054	119.509478	39.979542514	116.338915122	50.329760
41458	20359099	9.377824	-0.769295	2.532919	0.034131	-0.012782	0.024597	-22.623111	-75.045176	119.524114	39.979542509	116.338915125	50.329596
41459	20359124	9.386099	-0.770675	2.532904	0.030549	-0.009756	0.019354	-22.629697	-75.046186	119.535419	39.979542503	116.338915127	50.329431
41460	20359149	9.404006	-0.780303	2.526246	0.029413	-0.011714	0.023682	-22.638995	-75.047216	119.549362	39.979542497	116.338915130	50.329267
41461	20359174	9.409520	-0.758327	2.536983	0.028472	-0.006765	0.019902	-22.645535	-75.047799	119.560312	39.979542492	116.338915133	50.329102
41462	20359199	9.412222	-0.752901	2.562256	0.022545	-0.002690	0.016710	-22.650503	-75.048020	119.568755	39.979542486	116.338915135	50.328936
41463	20359224	9.373632	-0.759770	2.564861	0.019173	-0.003441	0.021143	-22.658304	-75.048095	119.579630	39.979542480	116.338915138	50.328771
41464	20359249	9.369490	-0.739224	2.576890	0.016367	-0.009245	0.022443	-22.668350	-75.048865	119.592413	39.979542474	116.338915141	50.328605
41465	20359274	9.406693	-0.743306	2.578214	0.012346	-0.010873	0.023170	-22.679670	-75.049810	119.605918	39.979542468	116.338915143	50.331272
41466	20359299	9.401208	-0.725430	2.578286	0.010131	-0.014207	0.024536	-22.692675	-75.051118	119.620839	39.979542463	116.338915146	50.331109
41467	20359324	9.413597	-0.728191	2.580940	0.008669	-0.017424	0.025220	-22.706896	-75.052814	119.636803	39.979542457	116.338915149	50.330945
41468	20359349	9.419052	-0.721437	2.610234	0.001022	-0.021555	0.020008	-22.720493	-75.055342	119.650986	39.979542451	116.338915151	50.330781
41469	20359374	9.401152	-0.718651	2.604908	0.004287	-0.025707	0.029904	-22.739386	-75.057871	119.671135	39.979542445	116.338915154	50.330617
41470	20359399	9.388716	-0.753037	2.599468	0.004156	-0.023025	0.027387	-22.756503	-75.060182	119.689425	39.979542439	116.338915156	50.330453
41471	20359424	9.394145	-0.765527	2.628687	-0.001258	-0.023532	0.030676	-22.776133	-75.062377	119.709514	39.979542433	116.338915159	50.330289
41472	20359449	9.398248	-0.764187	2.634027	-0.003099	-0.027411	0.030220	-22.796615	-75.065108	119.730211	39.979542427	116.338915161	50.330125
41473	20359474	9.391302	-0.768392	2.655299	-0.009272	-0.025013	0.024706	-22.814759	-75.067826	119.747573	39.979542421	116.338915164	50.332763
41474	20359499	9.392579	-0.794629	2.681791	-0.008294	-0.024772	0.027917	-22.834309	-75.070333	119.766536	39.979542415	116.338915167	50.332602
41475	20359524	9.384263	-0.786420	2.703108	-0.015149	-0.026540	0.023781	-22.853168	-75.073301	119.783767	39.979542409	116.338915169	50.332440
41476	20359549	9.413156	-0.809878	2.713675	-0.013085	-0.027722	0.025120	-22.872649	-75.076349	119.801947	39.979542403	116.338915172	50.332278
41477	20359574	9.414506	-0.781098	2.739066	-0.015083	-0.029626	0.024727	-22.892628	-75.079669	119.820345	39.979542397	116.338915174	50.332117
41478	20359599	9.410319	-0.823756	2.736244	-0.009847	-0.020638	0.024699	-22.909969	-75.081803	119.836791	39.979542391	116.338915177	50.331955
41479	20359624	9.391054	-0.805815	2.736289	-0.008115	-0.027674	0.020634	-22.926528	-75.085091	119.852683	39.979542385	116.338915179	50.331793
41480	20359649	9.454488	-0.792077	2.728398	-0.000168	-0.028624	0.021391	-22.942529	-75.088461	119.869176	39.979542379	116.338915181	50.331632
41481	20359674	9.461353	-0.801707	2.725723	0.008877	-0.024690	0.026299	-22.958848	-75.091036	119.887337	39.979542373	116.338915184	50.332107
41482	20359699	9.454511	-0.804371	2.715025	0.007325	-0.026500	0.019817	-22.972564	-75.094211	119.902576	39.979542367	116.338915186	50.331947
41483	20359724	9.436687	-0.780907	2.688499	0.013542	-0.027223	0.018734	-22.985011	-75.097542	119.917422	39.979542361	116.338915189	50.331788
41484	20359749	9.416038	-0.776721	2.676579	0.014846	-0.025314	0.019495	-22.997253	-75.100577	119.932249	39.979542354	116.338915191	50.331628
41485	20359774	9.418879	-0.779326	2.641978	0.019549	-0.024183	0.023301	-23.010475	-75.103249	119.948787	39.979542348	116.338915194	50.331468
41486	20359799	9.431321	-0.773816	2.632671	0.028937	-0.026147	0.020111	-23.021190	-75.106358	119.964122	39.979542342	116.338915196	50.331309
41487	20359824	9.427281	-0.732451	2.615551	0.027126	-0.019468	0.021598	-23.031499	-75.108502	119.978768	39.979542336	116.338915198	50.331150
41488	20359849	9.443922	-0.699345	2.591728	0.034650	-0.018860	0.020464	-23.040043	-75.110629	119.992704	39.979542329	116.338915201	50.330991
41489	20359874	9.463260	-0.692408	2.579777	0.030991	-0.018479	0.016405	-23.047022	-75.112933	120.004477	39.979542323	116.338915203	50.331486
41490	20359899	9.466080	-0.671729	2.565213	0.040914	-0.014304	0.020877	-23.053919	-75.114435	120.017636	39.979542317	116.338915205	50.331327
41491	20359924	9.481276	-0.653819	2.558647	0.037928	-0.013314	0.015077	-23.058160	-75.116132	120.027605	39.979542310	116.338915208	50.331169
41492	20359949	9.496474	-0.637291	2.556033	0.037165	-0.012927	0.015385	-23.062584	-75.117761	120.037649	39.979542304	116.338915210	50.331011
41493	20359974	9.499244	-0.642768	2.546712	0.029202	-0.008342	0.020155	-23.069547	-75.118517	120.049140	39.979542298	116.338915212	50.330854
41494	20359999	9.497903	-0.626234	2.538793	0.026122	-0.011359	0.017369	-23.076208	-75.119827	120.059862	39.979542291	116.338915214	50.330697
41495	20360024	9.518630	-0.591787	2.538898	0.019920	-0.013092	0.015503	-23.083199	-75.121470	120.070007	39.979542285	116.338915217	50.330539
41496	20360049	9.525626	-0.577937	2.507031	0.011975	-0.011273	0.009534	-23.087985	-75.123208	120.076693	39.979542279	116.338915219	50.330383
41497	20360074	9.529865	-0.535212	2.487229	0.003542	-0.006349	0.011787	-23.094057	-75.124170	120.083459	39.979542272	116.338915221	50.330899
41498	20360099	9.525768	-0.547547	2.465910	-0.006208	-0.008671	0.016487	-23.104349	-75.125175	120.093146	39.979542266	116.338915223	50.330743
41499	20360124	9.505076	-0.531052	2.484558	-0.021787	-0.009471	0.016740	-23.117168	-75.126269	120.103139	39.979542259	116.338915225	50.330588
41500	20360149	9.495503	-0.519975	2.460640	-0.034431	-0.012776	0.014883	-23.131580	-75.127903	120.112907	39.979542253	116.338915227	50.330433
41501	20360174	9.485864	-0.543285	2.443297	-0.040975	-0.011601	0.008611	-23.143572	-75.129735	120.119200	39.979542246	116.338915229	50.330277
41502	20360199	9.458303	-0.557020	2.437901	-0.054084	-0.005454	0.007999	-23.155836	-75.130791	120.123832	39.979542240	116.338915231	50.330122
41503	20360224	9.444471	-0.563951	2.447208	-0.056475	0.000025	0.013751	-23.170133	-75.130801	120.130214	39.979542233	116.338915233	50.329967
41504	20360249	9.423819	-0.577666	2.436482	-0.065975	-0.001585	0.011417	-23.184977	-75.131155	120.135752	39.979542227	116.338915235	50.329811
41505	20360274	9.412631	-0.635599	2.473501	-0.075111	0.000845	0.008017	-23.198927	-75.131380	120.139013	39.979542220	116.338915237	50.324948
41506	20360299	9.397381	-0.649458	2.502707	-0.083064	-0.001566	0.007263	-23.214154	-75.131965	120.142416	39.979542214	116.338915239	50.324787
41507	20360324	9.383578	-0.667336	2.498656	-0.080402	-0.001948	-0.000386	-23.225290	-75.133032	120.141981	39.979542207	116.338915241	50.324625
41508	20360349	9.373892	-0.676987	2.507952	-0.080925	-0.004022	0.000495	-23.237379	-75.134322	120.142454	39.979542201	116.338915243	50.324463
41509	20360374	9.358594	-0.721142	2.538383	-0.084655	-0.007261	-0.004369	-23.248282	-75.136313	120.141147	39.979542194	116.338915244	50.324300
41510	20360399	9.346181	-0.721159	2.543685	-0.089875	-0.002450	-0.004861	-23.258665	-75.137699	120.138529	39.979542188	116.338915246	50.324137
41511	20360424	9.351630	-0.733609	2.559593	-0.082636	-0.006571	-0.004672	-23.268984	-75.139617	120.136917	39.979542181	116.338915248	50.323973
41512	20360449	9.333660	-0.747445	2.574192	-0.088021	-0.010420	-0.004081	-23.281189	-75.142007	120.136459	39.979542174	116.338915250	50.323809
41513	20360474	9.341782	-0.802574	2.600608	-0.089779	-0.013936	-0.002207	-23.295328	-75.144754	120.137741	39.979542168	116.338915252	50.326658
41514	20360499	9.332064	-0.827378	2.613844	-0.081396	-0.020730	-0.006470	-23.307606	-75.148637	120.138340	39.979542161	116.338915253	50.326496
41515	20360524	9.314210	-0.808095	2.605857	-0.071989	-0.023310	-0.008467	-23.318101	-75.152972	120.138488	39.979542155	116.338915255	50.326333
41516	20360549	9.350093	-0.781890	2.594040	-0.061361	-0.029209	-0.008190	-23.328476	-75.158067	120.140087	39.979542148	116.338915257	50.326170
41517	20360574	9.326594	-0.810839	2.608566	-0.057361	-0.030906	-0.010796	-23.337351	-75.163534	120.140727	39.979542141	116.338915259	50.326006
41518	20360599	9.376192	-0.761460	2.643308	-0.051606	-0.033179	-0.010121	-23.346228	-75.169261	120.142222	39.979542134	116.338915260	50.325841
41519	20360624	9.337698	-0.748939	2.616732	-0.040139	-0.040294	-0.010213	-23.354946	-75.175928	120.145251	39.979542128	116.338915262	50.325677
41520	20360649	9.355714	-0.730947	2.583552	-0.034197	-0.043689	-0.004068	-23.366602	-75.182693	120.152200	39.979542121	116.338915264	50.325511
41521	20360674	9.354397	-0.722591	2.559651	-0.019926	-0.046781	-0.002070	-23.377878	-75.189750	120.160870	39.979542114	116.338915265	50.332671
41522	20360699	9.376501	-0.684054	2.558462	-0.021020	-0.046945	-0.004587	-23.388106	-75.196972	120.168293	39.979542107	116.338915267	50.332513
41523	20360724	9.404155	-0.626262	2.557353	-0.010529	-0.042103	-0.006267	-23.394959	-75.203653	120.173780	39.979542101	116.338915269	50.332354
41524	20360749	9.416585	-0.587801	2.569438	-0.005729	-0.042085	-0.008868	-23.399832	-75.210479	120.177930	39.979542094	116.338915270	50.332195
41525	20360774	9.405636	-0.540976	2.565598	0.007708	-0.052218	-0.007182	-23.405808	-75.218541	120.185211	39.979542087	116.338915272	50.332036
41528	20360799	9.420889	-0.495512	2.555129	0.012188	-0.052996	-0.004196	-23.412806	-75.226535	120.194213	39.979542080	116.338915273	50.331876
41529	20360824	9.419552	-0.483132	2.547166	0.024709	-0.049604	-0.000830	-23.418964	-75.233892	120.204201	39.979542073	116.338915275	50.331716
41530	20360849	9.411456	-0.427923	2.508803	0.029233	-0.053900	-0.000040	-23.425806	-75.241767	120.215564	39.979542066	116.338915276	50.331555
41531	20360874	9.410185	-0.372848	2.499648	0.025041	-0.045907	0.000803	-23.424946	-75.247001	120.223164	39.979542245	116.338915606	50.346085
41532	20360899	9.419967	-0.321840	2.477223	0.029504	-0.044549	-0.001489	-23.429015	-75.253730	120.231700	39.979542238	116.338915607	50.345962
41533	20360924	9.446290	-0.285922	2.434830	0.030991	-0.040486	0.003296	-23.434386	-75.259652	120.241803	39.979542231	116.338915609	50.345839
41534	20360949	9.465438	-0.261429	2.510710	0.033613	-0.030558	0.002116	-23.436647	-75.264337	120.249079	39.979542224	116.338915610	50.345715
41535	20360974	9.439279	-0.202345	2.537465	0.037408	-0.037652	-0.005703	-23.435997	-75.270399	120.253906	39.979542217	116.338915611	50.345592
41536	20360999	9.404981	-0.155386	2.499067	0.042337	-0.037758	-0.007799	-23.433617	-75.276595	120.257674	39.979542210	116.338915613	50.345467
41537	20361024	9.365150	-0.156598	2.443191	0.035952	-0.035541	-0.008044	-23.431549	-75.282513	120.260819	39.979542204	116.338915614	50.345342
41538	20361049	9.414828	-0.150988	2.424589	0.021204	-0.021300	-0.006407	-23.429325	-75.286466	120.261618	39.979542197	116.338915615	50.345216
41539	20361074	9.476771	-0.182708	2.431192	-0.004485	-0.007829	-0.010519	-23.425800	-75.288883	120.257268	39.979542190	116.338915616	50.348545
41540	20361099	9.484944	-0.166376	2.480471	-0.029330	0.004023	-0.016122	-23.420457	-75.290061	120.247359	39.979542183	116.338915617	50.348422
41541	20361124	9.480733	-0.139009	2.524434	-0.042495	0.006509	-0.016417	-23.416312	-75.290929	120.236738	39.979542176	116.338915618	50.348298
41542	20361149	9.454534	-0.156920	2.525664	-0.062269	0.013168	-0.017269	-23.413128	-75.290971	120.224184	39.979542169	116.338915619	50.348174
41543	20361174	9.432382	-0.198211	2.540177	-0.074472	0.020276	-0.021394	-23.408086	-75.290312	120.207901	39.979542162	116.338915620	50.348049
41544	20361199	9.428153	-0.238192	2.554651	-0.096169	0.029403	-0.027037	-23.401350	-75.288774	120.186654	39.979542155	116.338915621	50.347925
41545	20361224	9.440455	-0.264439	2.579856	-0.108290	0.031830	-0.030841	-23.393923	-75.287133	120.162896	39.979542148	116.338915622	50.347800
41546	20361249	9.455601	-0.253464	2.589215	-0.116703	0.033458	-0.032856	-23.386343	-75.285391	120.137735	39.979542141	116.338915622	50.347675
41547	20361274	9.454154	-0.283815	2.603720	-0.125246	0.042488	-0.035381	-23.376773	-75.282606	120.109250	39.979542134	116.338915623	50.347774
41548	20361299	9.449927	-0.333342	2.608917	-0.129959	0.044233	-0.041701	-23.364345	-75.279948	120.077113	39.979542127	116.338915624	50.347649
41549	20361324	9.441585	-0.367796	2.616753	-0.125559	0.051033	-0.039913	-23.350721	-75.276292	120.044389	39.979542120	116.338915624	50.347524
41550	20361349	9.459340	-0.418858	2.652507	-0.125296	0.055842	-0.044310	-23.333833	-75.272252	120.008329	39.979542113	116.338915625	50.347398
41551	20361374	9.466150	-0.478006	2.654947	-0.118345	0.058424	-0.048782	-23.313170	-75.268122	119.969395	39.979542105	116.338915625	50.347274
41552	20361399	9.471622	-0.490439	2.660271	-0.112353	0.058879	-0.051688	-23.290114	-75.264094	119.928873	39.979542098	116.338915626	50.347149
41553	20361424	9.489607	-0.473844	2.641689	-0.114536	0.062439	-0.055099	-23.264916	-75.259785	119.885813	39.979542091	116.338915626	50.347024
41554	20361449	9.478583	-0.483462	2.637666	-0.105166	0.067185	-0.054651	-23.237602	-75.254822	119.841950	39.979542084	116.338915626	50.346899
41555	20361474	9.499150	-0.559133	2.633430	-0.103229	0.066927	-0.050741	-23.212044	-75.249667	119.800190	39.979542076	116.338915627	50.348082
41556	20361499	9.474264	-0.588079	2.645333	-0.094046	0.080930	-0.053824	-23.180656	-75.242837	119.753761	39.979542069	116.338915627	50.347959
41557	20361524	9.471438	-0.628016	2.655778	-0.092299	0.078444	-0.054750	-23.149123	-75.236380	119.707438	39.979542062	116.338915627	50.347837
41558	20361549	9.450747	-0.656912	2.647716	-0.091136	0.082561	-0.058517	-23.114697	-75.229586	119.658295	39.979542055	116.338915628	50.347714
41559	20361574	9.445210	-0.656915	2.655700	-0.093104	0.086035	-0.059475	-23.079373	-75.222380	119.607930	39.979542047	116.338915628	50.347592
41560	20361599	9.419069	-0.648591	2.643727	-0.080289	0.093044	-0.059760	-23.040625	-75.214258	119.555920	39.979542040	116.338915628	50.347470
41561	20361624	9.398351	-0.626677	2.670434	-0.076444	0.096126	-0.056781	-23.002211	-75.205554	119.504823	39.979542033	116.338915628	50.347347
41562	20361649	9.377711	-0.639030	2.659688	-0.069231	0.102651	-0.060058	-22.959801	-75.196164	119.450660	39.979542025	116.338915629	50.347225
41563	20361674	9.373505	-0.669349	2.671522	-0.058261	0.102380	-0.060286	-22.915825	-75.186812	119.396500	39.979542018	116.338915629	50.346274
41564	20361699	9.361135	-0.651439	2.666310	-0.045078	0.102744	-0.060058	-22.870060	-75.177388	119.342441	39.979542010	116.338915629	50.346150
41565	20361724	9.352796	-0.679016	2.682147	-0.038303	0.103040	-0.060947	-22.822883	-75.167963	119.287921	39.979542003	116.338915629	50.346026
41566	20361749	9.363877	-0.677567	2.658215	-0.037512	0.102776	-0.057548	-22.777406	-75.158373	119.235276	39.979541995	116.338915629	50.345901
41567	20361774	9.333544	-0.645992	2.682278	-0.043000	0.101337	-0.064753	-22.729488	-75.149362	119.179290	39.979541988	116.338915629	50.345776
41568	20361799	9.323834	-0.650210	2.702180	-0.040670	0.101286	-0.059772	-22.683792	-75.140070	119.125945	39.979541980	116.338915629	50.345651
41569	20361824	9.312802	-0.651567	2.710128	-0.040445	0.099128	-0.059958	-22.638480	-75.131063	119.073029	39.979541973	116.338915630	50.345525
41570	20361849	9.297594	-0.676400	2.715378	-0.043224	0.093856	-0.069021	-22.590205	-75.123241	119.016634	39.979541965	116.338915630	50.345398
41571	20361874	9.294853	-0.654409	2.720766	-0.051428	0.094786	-0.062931	-22.546000	-75.114949	118.963231	39.979541957	116.338915630	50.341282
41572	20361899	9.316946	-0.628254	2.718210	-0.057147	0.086708	-0.065543	-22.503033	-75.107860	118.910259	39.979541950	116.338915630	50.341150
41573	20361924	9.296236	-0.647527	2.724790	-0.062333	0.091000	-0.062889	-22.461291	-75.100046	118.857786	39.979541942	116.338915630	50.341018
41574	20361949	9.319536	-0.683410	2.751281	-0.066939	0.086994	-0.068259	-22.418409	-75.093047	118.803448	39.979541934	116.338915630	50.340885
41575	20361974	9.322253	-0.699975	2.759191	-0.073716	0.083545	-0.066677	-22.378036	-75.086408	118.750700	39.979541927	116.338915630	50.340751
41576	20361999	9.352685	-0.666810	2.731413	-0.080270	0.084297	-0.067732	-22.337964	-75.079717	118.697290	39.979541919	116.338915630	50.340617
41577	20362024	9.370509	-0.695804	2.752593	-0.080971	0.084093	-0.068806	-22.297542	-75.073102	118.643413	39.979541911	116.338915629	50.340483
41578	20362049	9.385569	-0.717910	2.775151	-0.079136	0.079757	-0.070482	-22.256948	-75.067144	118.589627	39.979541903	116.338915629	50.340349
41579	20362074	9.411716	-0.737217	2.783073	-0.077100	0.079046	-0.071217	-22.215877	-75.061308	118.535650	39.979541896	116.338915629	50.345990
41580	20362099	9.426909	-0.713781	2.777836	-0.072880	0.073552	-0.077838	-22.172062	-75.056550	118.479456	39.979541888	116.338915629	50.345862
41581	20362124	9.429636	-0.711118	2.789837	-0.059648	0.071721	-0.076413	-22.127462	-75.051947	118.424409	39.979541880	116.338915629	50.345734
41582	20362149	9.440669	-0.704226	2.795191	-0.046454	0.069229	-0.080703	-22.079373	-75.047894	118.367707	39.979541872	116.338915629	50.345606
41583	20362174	9.479269	-0.698737	2.792556	-0.038430	0.071847	-0.078884	-22.030540	-75.043383	118.311423	39.979541864	116.338915629	50.345480
41584	20362199	9.490363	-0.658814	2.790041	-0.023468	0.068551	-0.077881	-21.980756	-75.039244	118.256372	39.979541856	116.338915629	50.345353
41585	20362224	9.495816	-0.679494	2.797962	-0.005159	0.065738	-0.077796	-21.928985	-75.035461	118.201977	39.979541848	116.338915628	50.345227
41586	20362249	9.480636	-0.665782	2.817940	0.010338	0.065641	-0.082579	-21.872661	-75.031934	118.145167	39.979541840	116.338915628	50.345102
41587	20362274	9.482047	-0.660253	2.805981	0.021157	0.064139	-0.080729	-21.816033	-75.028493	118.089646	39.979541832	116.338915628	50.344197
41588	20362299	9.476550	-0.631386	2.818056	0.035799	0.067189	-0.082943	-21.755628	-75.024750	118.032384	39.979541824	116.338915628	50.344072
41589	20362324	9.500099	-0.568015	2.802323	0.046663	0.069384	-0.083548	-21.692960	-75.020730	117.974391	39.979541816	116.338915627	50.343948
41590	20362349	9.507122	-0.540368	2.767827	0.051948	0.070941	-0.084826	-21.628625	-75.016555	117.915453	39.979541808	116.338915627	50.343825
41591	20362374	9.493407	-0.525162	2.746598	0.055759	0.069577	-0.086553	-21.563187	-75.012634	117.855938	39.979541800	116.338915627	50.343702
41592	20362399	9.490680	-0.527893	2.737257	0.061637	0.076747	-0.089402	-21.494116	-75.007891	117.793532	39.979541792	116.338915626	50.343579
41593	20362424	9.471449	-0.512661	2.718713	0.066994	0.086187	-0.088929	-21.422711	-75.001844	117.729504	39.979541783	116.338915626	50.343457
41594	20362449	9.485245	-0.518168	2.708044	0.063251	0.097796	-0.088403	-21.349900	-74.994200	117.663462	39.979541775	116.338915626	50.343335
41595	20362474	9.467407	-0.498790	2.688154	0.063165	0.099127	-0.088279	-21.276975	-74.986351	117.597287	39.979541767	116.338915625	50.340320
41596	20362499	9.471478	-0.505777	2.712075	0.060144	0.108892	-0.095914	-21.198870	-74.977571	117.525298	39.979541759	116.338915625	50.340196
41597	20362524	9.446609	-0.545667	2.713269	0.057465	0.116342	-0.097701	-21.118915	-74.967863	117.450993	39.979541750	116.338915624	50.340072
41598	20362549	9.431471	-0.541521	2.707954	0.046545	0.122362	-0.102377	-21.037145	-74.957564	117.373185	39.979541742	116.338915624	50.339948
41599	20362574	9.406579	-0.562277	2.733120	0.034586	0.132525	-0.101729	-20.955582	-74.945844	117.293815	39.979541734	116.338915623	50.339824
41600	20362599	9.363924	-0.522308	2.726579	0.022668	0.140345	-0.100510	-20.874973	-74.932986	117.213660	39.979541725	116.338915623	50.339700
41601	20362624	9.336403	-0.523613	2.711936	0.011259	0.143580	-0.101043	-20.795259	-74.919693	117.132734	39.979541717	116.338915622	50.339576
41602	20362649	9.306093	-0.503004	2.717328	0.005016	0.155467	-0.102989	-20.713380	-74.904877	117.048635	39.979541709	116.338915622	50.339451
41603	20362674	9.330708	-0.589800	2.742335	-0.006555	0.166218	-0.101079	-20.632259	-74.888493	116.963598	39.979541700	116.338915621	50.336524
41604	20362699	9.282404	-0.635204	2.746133	-0.014685	0.177017	-0.103730	-20.549158	-74.870762	116.875295	39.979541692	116.338915620	50.336395
41605	20362724	9.231569	-0.585536	2.714352	-0.018692	0.186449	-0.108483	-20.462728	-74.851971	116.782943	39.979541683	116.338915620	50.336265
41606	20362749	9.208057	-0.573350	2.758261	-0.017780	0.195016	-0.111373	-20.373381	-74.832136	116.687696	39.979541675	116.338915619	50.336134
41607	20362774	9.188659	-0.642105	2.760673	-0.013636	0.202861	-0.107706	-20.284062	-74.811027	116.593083	39.979541666	116.338915618	50.336001
41608	20362799	9.162365	-0.676621	2.783149	-0.007017	0.214380	-0.111875	-20.189893	-74.788536	116.494417	39.979541658	116.338915618	50.335868
41609	20362824	9.151313	-0.698643	2.783065	-0.004219	0.216432	-0.113928	-20.094222	-74.765828	116.394600	39.979541649	116.338915617	50.335733
41610	20362849	9.120889	-0.730357	2.805563	0.007232	0.226013	-0.111961	-19.996452	-74.741690	116.294295	39.979541641	116.338915616	50.335597
41611	20362874	9.122131	-0.799222	2.819971	0.023907	0.236031	-0.114289	-19.893671	-74.716270	116.191261	39.979541632	116.338915615	50.337091
41612	20362899	9.079342	-0.802080	2.847856	0.034752	0.238965	-0.115842	-19.788395	-74.690482	116.087238	39.979541624	116.338915615	50.336954
41613	20362924	9.028138	-0.869664	2.895481	0.039816	0.239192	-0.116935	-19.682166	-74.664665	115.982966	39.979541615	116.338915614	50.336815
41614	20362949	8.972889	-0.932998	2.911202	0.042292	0.241430	-0.119056	-19.574502	-74.638597	115.877560	39.979541606	116.338915613	50.336673
41615	20362974	8.928805	-0.909674	2.917902	0.041965	0.245458	-0.120887	-19.465647	-74.612020	115.770858	39.979541598	116.338915613	50.336529
41616	20362999	8.844672	-0.960596	2.920341	0.044939	0.252256	-0.114968	-19.358466	-74.584190	115.666320	39.979541589	116.338915612	50.336383
41617	20363024	8.833539	-0.995056	2.946813	0.049165	0.257391	-0.114438	-19.250442	-74.555588	115.561520	39.979541580	116.338915611	50.336234
41618	20363049	8.800353	-1.085825	2.935852	0.051424	0.259842	-0.119260	-19.139713	-74.526829	115.454236	39.979541571	116.338915611	50.336082
41619	20363074	8.764535	-1.073446	2.939859	0.061053	0.258234	-0.115854	-19.029940	-74.498072	115.349360	39.979541562	116.338915610	50.342997
41620	20363099	8.718993	-1.120258	2.941006	0.066121	0.262666	-0.115509	-18.919266	-74.468646	115.244288	39.979541553	116.338915609	50.342846
41621	20363124	8.669247	-1.182228	2.956757	0.067776	0.261112	-0.117193	-18.808198	-74.439454	115.139038	39.979541545	116.338915609	50.342691
41622	20363149	8.650025	-1.168350	2.934174	0.077340	0.267181	-0.121145	-18.693244	-74.409565	115.031161	39.979541536	116.338915608	50.342533
41623	20363174	8.589431	-1.210852	2.895429	0.086078	0.266756	-0.122961	-18.576650	-74.379758	114.922865	39.979541527	116.338915608	50.342369
41624	20363199	8.538582	-1.194169	2.846261	0.098349	0.274023	-0.118917	-18.459511	-74.348721	114.815812	39.979541518	116.338915607	50.342202
41625	20363224	8.476550	-1.238142	2.835423	0.112702	0.277720	-0.116044	-18.341557	-74.316993	114.710031	39.979541509	116.338915607	50.342030
41626	20363249	8.422763	-1.287587	2.820615	0.130102	0.286736	-0.117052	-18.219639	-74.284023	114.602704	39.979541500	116.338915607	50.341853
41627	20363274	8.363568	-1.292984	2.793940	0.146854	0.296198	-0.126165	-18.089907	-74.250109	114.489735	39.979541490	116.338915606	50.340960
41629	20363299	8.276732	-1.319104	2.788481	0.168407	0.307509	-0.126007	-17.955917	-74.214577	114.375531	39.979541481	116.338915606	50.340771
41631	20363324	8.242353	-1.323101	2.756546	0.185594	0.318192	-0.133802	-17.814618	-74.177857	114.256268	39.979541472	116.338915606	50.340575
41632	20363349	8.147307	-1.277726	2.769952	0.200683	0.328921	-0.134949	-17.669565	-74.139643	114.135327	39.979541463	116.338915606	50.340372
41633	20363374	8.075557	-1.265505	2.811166	0.210762	0.336754	-0.135382	-17.530410	-74.094352	113.968812	39.979541883	116.338915293	50.365765
41634	20363399	7.977774	-1.250282	2.793874	0.216384	0.348099	-0.130200	-17.383816	-74.053149	113.848556	39.979541874	116.338915293	50.365617
41635	20363424	7.900715	-1.214399	2.773988	0.224504	0.354056	-0.125055	-17.238317	-74.010828	113.730624	39.979541865	116.338915292	50.365461
41636	20363449	7.830266	-1.251750	2.827010	0.232257	0.359580	-0.127643	-17.090355	-73.967777	113.611261	39.979541856	116.338915292	50.365297
41637	20363474	7.766816	-1.190025	2.884381	0.242223	0.364867	-0.124370	-16.942469	-73.923780	113.493435	39.979541847	116.338915292	50.364159
41638	20363499	7.748710	-1.252104	2.933338	0.258741	0.360192	-0.122352	-16.794566	-73.880256	113.378028	39.979541838	116.338915291	50.363975
41639	20363524	7.716961	-1.275514	2.933253	0.265972	0.355876	-0.130205	-16.643225	-73.837565	113.260096	39.979541829	116.338915291	50.363782
41640	20363549	7.690779	-1.253561	2.950591	0.266814	0.350729	-0.131075	-16.492778	-73.795529	113.143194	39.979541820	116.338915291	50.363579
41641	20363574	7.660399	-1.245442	2.983839	0.279538	0.349136	-0.122495	-16.345463	-73.753281	113.031429	39.979541811	116.338915291	50.363367
41642	20363599	7.653198	-1.363992	3.039297	0.268757	0.332299	-0.126398	-16.200825	-73.713424	112.920819	39.979541802	116.338915291	50.363145
41643	20363624	7.669608	-1.366925	3.083215	0.264259	0.316945	-0.120200	-16.062440	-73.675358	112.816032	39.979541792	116.338915291	50.362913
41644	20363649	7.675197	-1.350331	3.064629	0.254978	0.298874	-0.113916	-15.931314	-73.639462	112.717403	39.979541783	116.338915291	50.362673
41645	20363674	7.723192	-1.426245	3.112258	0.239888	0.277449	-0.111942	-15.806614	-73.606379	112.623203	39.979541774	116.338915291	50.364502
41646	20363699	7.773960	-1.533649	3.138543	0.220132	0.255317	-0.115092	-15.686614	-73.576414	112.530936	39.979541764	116.338915291	50.364245
41647	20363724	7.834666	-1.489640	3.137396	0.214031	0.232334	-0.110848	-15.572848	-73.549401	112.444245	39.979541755	116.338915291	50.363980
41648	20363749	7.888401	-1.486920	3.144097	0.197738	0.212292	-0.105743	-15.466713	-73.524912	112.363066	39.979541746	116.338915291	50.363707
41649	20363774	7.948915	-1.481625	3.197343	0.189100	0.184315	-0.097050	-15.369732	-73.503915	112.290133	39.979541736	116.338915292	50.363427
41650	20363799	8.031609	-1.454135	3.206790	0.201349	0.158344	-0.088008	-15.278734	-73.486129	112.225262	39.979541727	116.338915292	50.363139
41651	20363824	8.107252	-1.476389	3.259950	0.202315	0.128333	-0.086904	-15.192075	-73.472420	112.165058	39.979541717	116.338915293	50.362844
41652	20363849	8.199408	-1.495845	3.310480	0.219969	0.097866	-0.077438	-15.111251	-73.462545	112.113573	39.979541707	116.338915293	50.362543
41653	20363874	8.266775	-1.537287	3.350318	0.228046	0.070088	-0.070877	-15.035880	-73.456247	112.068982	39.979541698	116.338915294	50.366315
41654	20363899	8.350827	-1.485186	3.387742	0.237310	0.039256	-0.064872	-14.965866	-73.453977	112.031362	39.979541688	116.338915295	50.366007
41655	20363924	8.445676	-1.518506	3.462184	0.242044	0.007270	-0.064488	-14.899336	-73.456106	111.998085	39.979541678	116.338915296	50.365695
41656	20363949	8.584784	-1.463696	3.524953	0.253344	-0.023216	-0.057395	-14.838251	-73.462185	111.972176	39.979541668	116.338915296	50.365380
41657	20363974	8.682492	-1.469420	3.572851	0.257254	-0.053513	-0.046404	-14.785438	-73.472049	111.955481	39.979541658	116.338915297	50.365065
41658	20363999	8.777516	-1.431085	3.615626	0.256674	-0.084552	-0.042482	-14.738317	-73.486065	111.944639	39.979541649	116.338915298	50.364745
41659	20364024	8.926171	-1.425909	3.692835	0.259216	-0.115195	-0.029552	-14.700596	-73.503854	111.943980	39.979541639	116.338915299	50.364423
41660	20364049	9.043152	-1.402781	3.762158	0.250715	-0.151013	-0.020285	-14.672792	-73.526269	111.952394	39.979541629	116.338915301	50.364100
41661	20364074	9.194388	-1.463773	3.871098	0.240055	-0.183229	-0.011793	-14.654434	-73.552842	111.969065	39.979541618	116.338915302	50.362840
41662	20364099	9.303034	-1.470996	3.954928	0.220019	-0.215817	-0.003184	-14.647003	-73.583619	111.994133	39.979541608	116.338915303	50.362519
41663	20364124	9.400831	-1.439507	3.989664	0.200531	-0.249103	0.009187	-14.652335	-73.618562	112.029591	39.979541598	116.338915304	50.362201
41664	20364149	9.490136	-1.428976	4.101466	0.172240	-0.280330	0.018917	-14.670274	-73.657477	112.073958	39.979541588	116.338915306	50.361885
41665	20364174	9.633090	-1.506409	4.205034	0.143461	-0.310725	0.024815	-14.699062	-73.700384	112.125326	39.979541577	116.338915307	50.361577
41666	20364199	9.751414	-1.534181	4.263545	0.110210	-0.339529	0.031054	-14.739396	-73.747046	112.183747	39.979541567	116.338915309	50.361270
41667	20364224	9.758191	-1.542593	4.298100	0.078994	-0.374840	0.047107	-14.796585	-73.797999	112.255052	39.979541557	116.338915310	50.360968
41668	20364249	9.821443	-1.592267	4.328555	0.047736	-0.396648	0.055552	-14.865466	-73.851640	112.333850	39.979541546	116.338915312	50.360671
41669	20364274	9.876356	-1.602150	4.392448	0.013430	-0.409026	0.066921	-14.946797	-73.906546	112.420470	39.979541535	116.338915314	50.359520
41670	20364299	9.906411	-1.609456	4.510755	-0.020772	-0.439920	0.081497	-15.044614	-73.965149	112.519124	39.979541525	116.338915316	50.359235
41671	20364324	9.925588	-1.663175	4.515947	-0.049695	-0.455721	0.093409	-15.155116	-74.025443	112.626634	39.979541514	116.338915317	50.358957
41672	20364349	9.965454	-1.620724	4.582599	-0.070007	-0.472161	0.101498	-15.275447	-74.087646	112.741309	39.979541503	116.338915319	50.358685
41673	20364374	10.012152	-1.577029	4.665260	-0.083052	-0.482956	0.110638	-15.404457	-74.150925	112.863028	39.979541492	116.338915321	50.358422
41674	20364399	10.017593	-1.483805	4.751990	-0.094678	-0.493646	0.122681	-15.543462	-74.215141	112.993366	39.979541481	116.338915324	50.358164
41675	20364424	10.018748	-1.517038	4.814452	-0.097394	-0.504609	0.138184	-15.693051	-74.280181	113.134256	39.979541469	116.338915326	50.357915
41676	20364449	10.000719	-1.525477	4.860933	-0.109379	-0.512090	0.144945	-15.849926	-74.345888	113.280884	39.979541458	116.338915328	50.357673
41677	20364474	9.926225	-1.502281	4.912819	-0.119792	-0.519931	0.149134	-16.012742	-74.412399	113.432086	39.979541447	116.338915330	50.355645
41678	20364499	9.843484	-1.476272	4.958064	-0.134556	-0.528771	0.154236	-16.182809	-74.479805	113.588570	39.979541435	116.338915333	50.355415
41679	20364524	9.781499	-1.462426	4.943493	-0.146468	-0.528869	0.155270	-16.356528	-74.547057	113.747022	39.979541423	116.338915335	50.355192
41680	20364549	9.756638	-1.425423	4.990149	-0.151907	-0.528723	0.156043	-16.532833	-74.614128	113.907296	39.979541412	116.338915338	50.354975
41681	20364574	9.755291	-1.360883	5.020917	-0.174233	-0.528128	0.155802	-16.713594	-74.680994	114.068824	39.979541400	116.338915341	50.354764
41682	20364599	9.673955	-1.343042	5.039595	-0.179675	-0.529885	0.160719	-16.899364	-74.747761	114.234685	39.979541388	116.338915343	50.354559
41683	20364624	9.629938	-1.322293	5.017036	-0.192335	-0.523402	0.161178	-17.087712	-74.813477	114.401286	39.979541375	116.338915346	50.354360
41684	20364649	9.539209	-1.278006	4.955951	-0.197020	-0.507319	0.164455	-17.277391	-74.876708	114.568519	39.979541363	116.338915349	50.354165
41685	20364674	9.459445	-1.221426	4.925507	-0.196882	-0.482895	0.155135	-17.459905	-74.936857	114.728303	39.979541351	116.338915352	50.353267
41686	20364699	9.395986	-1.288770	4.901350	-0.195126	-0.454454	0.150721	-17.636677	-74.993182	114.882359	39.979541338	116.338915355	50.353080
41687	20364724	9.299725	-1.212963	4.873582	-0.184183	-0.428616	0.139475	-17.803137	-75.046351	115.027323	39.979541325	116.338915358	50.352897
41688	20364749	9.175852	-1.193446	4.816413	-0.175375	-0.395592	0.137627	-17.963010	-75.094993	115.166742	39.979541312	116.338915361	50.352716
41689	20364774	9.049101	-1.226365	4.793597	-0.158283	-0.361168	0.128934	-18.111166	-75.139235	115.296539	39.979541300	116.338915364	50.352533
41690	20364799	8.958122	-1.319709	4.746709	-0.145216	-0.332893	0.119710	-18.248735	-75.179959	115.417296	39.979541286	116.338915367	50.352355
41691	20364824	8.863105	-1.367644	4.689301	-0.124538	-0.295502	0.106581	-18.370885	-75.216118	115.525145	39.979541273	116.338915370	50.352177
41692	20364849	8.768157	-1.429266	4.603928	-0.114344	-0.257196	0.086267	-18.475046	-75.247936	115.615885	39.979541260	116.338915373	50.351999
41693	20364874	8.678743	-1.444082	4.522707	-0.104964	-0.214241	0.075373	-18.565197	-75.274377	115.693515	39.979541246	116.338915377	50.350155
41694	20364899	8.596330	-1.440927	4.421567	-0.101422	-0.177264	0.074489	-18.648227	-75.295809	115.764299	39.979541233	116.338915380	50.349973
41695	20364924	8.491699	-1.512188	4.345443	-0.089532	-0.143893	0.070968	-18.722100	-75.312849	115.827370	39.979541219	116.338915384	50.349789
41696	20364949	8.367702	-1.598638	4.283897	-0.075775	-0.119065	0.076270	-18.792529	-75.326258	115.888915	39.979541205	116.338915387	50.349602
41697	20364974	8.236814	-1.713880	4.206301	-0.055638	-0.102930	0.077164	-18.857801	-75.337419	115.948105	39.979541191	116.338915391	50.349407
41698	20364999	8.170806	-1.801583	4.102218	-0.031215	-0.090593	0.074515	-18.916103	-75.347014	116.003706	39.979541177	116.338915395	50.349212
41699	20365024	8.086907	-1.798571	4.039677	0.001743	-0.083303	0.073515	-18.967939	-75.355656	116.057500	39.979541163	116.338915398	50.349011
41700	20365049	8.021086	-1.741763	3.945377	0.035912	-0.086589	0.081503	-19.019672	-75.364357	116.116244	39.979541149	116.338915402	50.348805
41701	20365074	7.932911	-1.846081	3.877120	0.073709	-0.089963	0.084126	-19.068018	-75.373379	116.177080	39.979541134	116.338915406	50.353061
41702	20365099	7.909549	-1.976456	3.776908	0.108278	-0.107197	0.091061	-19.118180	-75.384397	116.244908	39.979541120	116.338915411	50.352846
41703	20365124	7.827030	-1.891078	3.762500	0.143610	-0.138463	0.112404	-19.180098	-75.398625	116.330111	39.979541105	116.338915415	50.352624
41704	20365149	7.810506	-1.999514	3.688990	0.186990	-0.172512	0.150463	-19.261902	-75.415637	116.442278	39.979541091	116.338915419	50.352394
41705	20365174	7.796690	-2.231638	3.579119	0.230977	-0.218114	0.171384	-19.356844	-75.437780	116.574519	39.979541076	116.338915424	50.352156
41706	20365199	7.807712	-2.463662	3.444046	0.272708	-0.253931	0.177711	-19.456040	-75.464403	116.717317	39.979541061	116.338915428	50.351911
41707	20365224	7.824491	-2.544260	3.294859	0.310245	-0.282171	0.161763	-19.547216	-75.495543	116.857365	39.979541047	116.338915433	50.351659
41708	20365249	7.868870	-2.508149	3.193948	0.340581	-0.296664	0.145368	-19.628677	-75.529372	116.991847	39.979541032	116.338915438	50.351399
41709	20365274	7.961423	-2.479004	3.120959	0.360456	-0.306276	0.123869	-19.698338	-75.565491	117.117062	39.979541017	116.338915443	50.350487
41710	20365299	8.059509	-2.349559	3.093516	0.372867	-0.306459	0.121017	-19.765246	-75.601734	117.241249	39.979541002	116.338915448	50.350212
41711	20365324	8.110863	-2.097751	3.090382	0.376445	-0.305423	0.118347	-19.830520	-75.637932	117.364259	39.979540987	116.338915453	50.349930
41712	20365349	8.215774	-1.920392	3.117631	0.369459	-0.301324	0.124198	-19.899573	-75.673257	117.490117	39.979540971	116.338915459	50.349643
41713	20365374	8.264050	-1.767932	3.196591	0.352049	-0.303245	0.129153	-19.974592	-75.708559	117.619537	39.979540956	116.338915464	50.349351
41714	20365399	8.290227	-1.647083	3.260875	0.321005	-0.313987	0.131935	-20.058120	-75.745126	117.753130	39.979540941	116.338915470	50.349052
41715	20365424	8.221235	-1.519556	3.382240	0.296816	-0.327621	0.129302	-20.146936	-75.783608	117.888580	39.979540926	116.338915475	50.348747
41716	20365449	8.190859	-1.424921	3.466315	0.251508	-0.352196	0.133921	-20.250141	-75.825108	118.032156	39.979540910	116.338915481	50.348436
41717	20365474	8.197795	-1.339706	3.494549	0.203742	-0.371282	0.137146	-20.366422	-75.868945	118.182133	39.979540895	116.338915487	50.348559
41718	20365499	8.207343	-1.280816	3.569236	0.159767	-0.394779	0.137703	-20.494833	-75.915830	118.338092	39.979540879	116.338915493	50.348237
41719	20365524	8.325842	-1.243778	3.594720	0.125712	-0.408919	0.145616	-20.636173	-75.964123	118.502319	39.979540864	116.338915499	50.347910
41720	20365549	8.383165	-1.337978	3.764660	0.102736	-0.421888	0.144884	-20.784114	-76.014090	118.669922	39.979540848	116.338915505	50.347578
41721	20365574	8.391389	-1.289980	3.812700	0.089651	-0.435491	0.144605	-20.937716	-76.065785	118.841389	39.979540832	116.338915511	50.347244
41722	20365599	8.449096	-1.303972	3.873886	0.055714	-0.456128	0.130664	-21.094160	-76.120843	119.010737	39.979540816	116.338915517	50.346904
41723	20365624	8.505827	-1.158116	3.865116	0.042583	-0.469041	0.134093	-21.258364	-76.177334	119.186101	39.979540800	116.338915523	50.346560
41724	20365649	8.592559	-1.241973	3.833005	0.034161	-0.463109	0.147656	-21.431276	-76.232204	119.369146	39.979540784	116.338915529	50.346213
41725	20365674	8.567229	-1.419915	3.956046	0.005953	-0.462276	0.142030	-21.606404	-76.287125	119.550269	39.979540768	116.338915535	50.345340
41726	20365699	8.695536	-1.348274	3.929797	-0.001606	-0.447540	0.139017	-21.779168	-76.340113	119.727804	39.979540752	116.338915541	50.344986
41727	20365724	8.788766	-1.475327	4.049107	-0.004016	-0.441319	0.135288	-21.950211	-76.392347	119.903173	39.979540735	116.338915548	50.344631
41728	20365749	8.675807	-1.425824	4.069171	0.009364	-0.443676	0.124021	-22.114988	-76.445379	120.074028	39.979540719	116.338915554	50.344273
41729	20365774	8.712890	-1.472697	4.082302	0.049187	-0.427203	0.135066	-22.277730	-76.495512	120.248620	39.979540702	116.338915561	50.343914
41732	20365799	8.582834	-1.646475	4.201331	0.078516	-0.428285	0.121658	-22.430342	-76.546407	120.417079	39.979540686	116.338915567	50.343552
41733	20365824	8.486967	-1.410785	4.094390	0.093560	-0.445019	0.106710	-22.577577	-76.600233	120.582188	39.979540669	116.338915574	50.343188
41734	20365849	8.488213	-1.450815	4.124790	0.117187	-0.439815	0.121275	-22.729569	-76.652468	120.755629	39.979540652	116.338915581	50.342819
41735	20365874	8.451046	-1.460331	4.106141	0.122768	-0.447747	0.113285	-22.900278	-76.693450	120.799981	39.979541455	116.338914557	50.370105
41736	20365899	8.453870	-1.461623	4.075517	0.132969	-0.450966	0.106834	-23.047060	-76.747736	120.970323	39.979541439	116.338914563	50.369808
41737	20365924	8.314978	-1.378797	4.011912	0.119929	-0.455749	0.100258	-23.194472	-76.802922	121.139356	39.979541422	116.338914569	50.369507
41738	20365949	8.403441	-1.341312	3.913696	0.112134	-0.442275	0.106032	-23.344301	-76.855908	121.309686	39.979541405	116.338914575	50.369201
41739	20365974	8.338287	-1.420139	4.019743	0.111420	-0.425033	0.114800	-23.496238	-76.906026	121.482041	39.979541388	116.338914581	50.368890
41740	20365999	8.235876	-1.479787	4.168470	0.110351	-0.424446	0.108005	-23.645576	-76.956354	121.651534	39.979541371	116.338914587	50.368576
41741	20366024	8.034442	-1.455472	4.305304	0.100520	-0.456165	0.073327	-23.785803	-77.012741	121.810195	39.979541354	116.338914593	50.368256
41742	20366049	8.171790	-1.156121	4.105672	0.092530	-0.484437	0.027189	-23.909317	-77.075422	121.950493	39.979541337	116.338914599	50.367930
41743	20366074	8.353915	-1.030873	4.067598	0.101787	-0.491136	0.036325	-24.039727	-77.138379	122.099191	39.979541319	116.338914606	50.370510
41744	20366099	8.404550	-1.271700	4.065527	0.090103	-0.495881	0.047544	-24.180860	-77.201220	122.257133	39.979541302	116.338914612	50.370177
41745	20366124	8.386392	-1.501384	4.034141	0.072205	-0.493132	0.052048	-24.327916	-77.263349	122.418480	39.979541284	116.338914618	50.369840
41746	20366149	8.379290	-1.659583	4.024315	0.058131	-0.490749	0.057462	-24.481006	-77.324754	122.583906	39.979541266	116.338914625	50.369499
41747	20366174	8.400966	-1.760393	4.111766	0.055581	-0.482382	0.057249	-24.633649	-77.384983	122.748462	39.979541248	116.338914632	50.369154
41748	20366199	8.393877	-1.826596	4.151458	0.049132	-0.479931	0.063537	-24.791743	-77.444419	122.917617	39.979541230	116.338914638	50.368805
41749	20366224	8.344095	-1.876294	4.199155	0.045571	-0.474237	0.058918	-24.947639	-77.503292	123.083959	39.979541212	116.338914645	50.368452
41750	20366249	8.310604	-1.919448	4.333286	0.052142	-0.472403	0.051302	-25.099127	-77.562292	123.246712	39.979541194	116.338914652	50.368095
41751	20366274	8.271872	-1.981494	4.372975	0.051598	-0.471094	0.041996	-25.246327	-77.621597	123.404958	39.979541175	116.338914659	50.365819
41752	20366299	8.323069	-1.920760	4.316045	0.053754	-0.460446	0.034219	-25.387079	-77.679914	123.556885	39.979541157	116.338914666	50.365452
41753	20366324	8.583789	-1.767922	4.276869	0.070186	-0.427006	0.041752	-25.521841	-77.733364	123.705056	39.979541138	116.338914674	50.365081
41754	20366349	8.729385	-1.816721	4.450960	0.098844	-0.404517	0.047304	-25.650589	-77.783493	123.851245	39.979541119	116.338914681	50.364709
41755	20366374	8.726886	-1.766919	4.371358	0.127289	-0.383613	0.049457	-25.771629	-77.830722	123.993690	39.979541100	116.338914688	50.364338
41756	20366399	8.774540	-1.968278	4.490379	0.155602	-0.351977	0.048837	-25.880045	-77.873851	124.127347	39.979541081	116.338914696	50.363962
41757	20366424	8.551335	-1.867980	4.541102	0.159679	-0.338580	0.039738	-25.979337	-77.915772	124.252248	39.979541062	116.338914704	50.363585
41758	20366449	8.525536	-1.688892	4.477905	0.149205	-0.332822	0.042604	-26.080938	-77.956727	124.377956	39.979541042	116.338914711	50.363204
41759	20366474	8.518302	-1.769092	4.585277	0.136200	-0.320119	0.043368	-26.181862	-77.995953	124.501049	39.979541023	116.338914719	50.363914
41760	20366499	8.533683	-1.731653	4.517613	0.127526	-0.317241	0.036389	-26.279672	-78.035207	124.619670	39.979541003	116.338914727	50.363529
41761	20366524	8.606919	-1.664083	4.470006	0.121835	-0.308648	0.026102	-26.370170	-78.073970	124.729966	39.979540983	116.338914735	50.363141
41762	20366549	8.584795	-1.629877	4.525954	0.110506	-0.306442	0.024441	-26.461265	-78.112520	124.839199	39.979540963	116.338914743	50.362751
41763	20366574	8.555900	-1.558426	4.559369	0.095087	-0.310954	0.014204	-26.550348	-78.152267	124.944104	39.979540943	116.338914751	50.362358
41764	20366599	8.394880	-1.446869	4.537060	0.068840	-0.324692	0.009544	-26.645217	-78.194038	125.051063	39.979540922	116.338914760	50.361961
41765	20366624	8.382315	-1.464954	4.591536	0.051102	-0.337836	0.014061	-26.750188	-78.237163	125.165730	39.979540902	116.338914768	50.361561
41766	20366649	8.448197	-1.557384	4.655076	0.024542	-0.363486	0.008284	-26.864221	-78.283894	125.285748	39.979540881	116.338914777	50.361157
41767	20366674	8.441696	-1.404351	4.582438	0.012626	-0.383121	-0.000457	-26.981676	-78.333651	125.407496	39.979540860	116.338914785	50.359959
41768	20366699	8.491328	-1.418067	4.566478	0.008270	-0.399116	-0.006688	-27.101990	-78.385803	125.531504	39.979540839	116.338914794	50.359547
41769	20366724	8.569943	-1.482467	4.487856	0.010331	-0.404532	-0.012568	-27.221180	-78.438977	125.654642	39.979540818	116.338914802	50.359133
41770	20366749	8.612719	-1.513933	4.445249	0.008242	-0.401218	-0.019684	-27.336267	-78.492146	125.773265	39.979540797	116.338914811	50.358715
41771	20366774	8.681547	-1.526450	4.467831	0.008242	-0.394446	-0.028293	-27.444829	-78.544975	125.885206	39.979540776	116.338914820	50.358297
41772	20366799	8.695651	-1.451830	4.386964	0.009780	-0.388104	-0.035822	-27.547363	-78.597454	125.991202	39.979540754	116.338914829	50.357875
41773	20366824	8.716238	-1.497250	4.389484	0.021109	-0.365201	-0.037010	-27.640899	-78.647069	126.089656	39.979540732	116.338914838	50.357450
41774	20366849	8.758843	-1.563328	4.389317	0.012708	-0.350674	-0.048706	-27.724220	-78.695589	126.176446	39.979540710	116.338914847	50.357023
41775	20366874	8.775289	-1.552512	4.439861	0.014317	-0.335084	-0.052413	-27.800447	-78.742357	126.256224	39.979540688	116.338914856	50.356869
41776	20366899	8.815272	-1.597747	4.395900	0.025791	-0.316992	-0.053401	-27.868932	-78.786880	126.329773	39.979540666	116.338914865	50.356440
41777	20366924	8.795900	-1.636346	4.409032	0.025390	-0.302994	-0.057626	-27.930575	-78.829898	126.396277	39.979540644	116.338914875	50.356008
41778	20366949	8.866154	-1.636361	4.417067	0.041242	-0.285240	-0.059648	-27.983070	-78.870792	126.455760	39.979540621	116.338914884	50.355575
41779	20366974	8.848240	-1.647362	4.419657	0.058152	-0.273676	-0.068194	-28.024065	-78.910789	126.505985	39.979540599	116.338914894	50.355142
41780	20366999	8.937975	-1.611456	4.366656	0.077769	-0.256111	-0.081806	-28.047704	-78.949476	126.541382	39.979540576	116.338914903	50.354706
41781	20367024	9.070307	-1.659438	4.320036	0.097694	-0.233002	-0.085682	-28.058172	-78.985501	126.566262	39.979540553	116.338914913	50.354270
41782	20367049	9.033060	-1.682816	4.319950	0.107361	-0.206190	-0.088206	-28.056411	-79.018306	126.580092	39.979540530	116.338914923	50.353834
41783	20367074	9.165214	-1.705029	4.362496	0.121647	-0.187927	-0.094320	-28.042283	-79.049215	126.583408	39.979540507	116.338914932	50.352776
41784	20367099	9.125241	-1.732536	4.359689	0.129245	-0.170691	-0.105335	-28.013804	-79.078687	126.573217	39.979540483	116.338914942	50.352340
41785	20367124	9.228556	-1.795762	4.328974	0.137050	-0.155203	-0.103146	-27.980131	-79.106051	126.558874	39.979540460	116.338914952	50.351905
41786	20367149	9.327788	-1.823193	4.308996	0.141001	-0.136660	-0.108652	-27.935658	-79.131437	126.534112	39.979540436	116.338914963	50.351470
41787	20367174	9.404895	-1.911207	4.278159	0.145942	-0.112846	-0.112900	-27.879177	-79.154089	126.497845	39.979540412	116.338914973	50.351041
41788	20367199	9.439475	-1.858846	4.262396	0.140688	-0.093207	-0.117479	-27.813355	-79.174553	126.451305	39.979540388	116.338914983	50.350610
41789	20367224	9.363584	-1.831564	4.318255	0.144495	-0.076176	-0.113887	-27.743209	-79.192609	126.400921	39.979540364	116.338914994	50.350181
41790	20367249	9.400582	-1.848357	4.400679	0.139885	-0.070962	-0.117192	-27.669504	-79.210211	126.346243	39.979540340	116.338915004	50.349755
41791	20367274	9.360700	-1.764465	4.419545	0.131874	-0.071917	-0.122093	-27.593801	-79.228247	126.288367	39.979540316	116.338915015	50.351724
41792	20367299	9.477916	-1.735512	4.393124	0.130534	-0.072244	-0.123291	-27.517380	-79.246389	126.229568	39.979540291	116.338915026	50.351304
41793	20367324	9.554982	-1.730235	4.447687	0.123593	-0.075310	-0.125979	-27.440993	-79.265084	126.169795	39.979540266	116.338915036	50.350886
41794	20367349	9.611542	-1.683450	4.443899	0.111887	-0.080882	-0.126816	-27.367423	-79.284528	126.111187	39.979540242	116.338915047	50.350471
41795	20367374	9.763019	-1.753660	4.449082	0.109725	-0.080734	-0.134489	-27.288702	-79.304444	126.047026	39.979540217	116.338915058	50.350063
41796	20367399	9.898060	-1.675437	4.495959	0.105502	-0.075303	-0.136280	-27.207224	-79.323768	125.979447	39.979540191	116.338915069	50.349656
41797	20367424	9.949071	-1.621840	4.521437	0.103319	-0.080004	-0.141630	-27.123797	-79.344024	125.909571	39.979540166	116.338915081	50.349255
41798	20367449	10.079989	-1.566957	4.548296	0.092472	-0.078027	-0.146171	-27.037864	-79.364304	125.835568	39.979540141	116.338915092	50.348859
41799	20367474	10.108846	-1.534166	4.598949	0.077531	-0.088857	-0.143322	-26.959462	-79.385762	125.767057	39.979540115	116.338915103	50.347964
41800	20367499	10.229939	-1.557788	4.661443	0.057845	-0.092101	-0.146361	-26.882634	-79.407814	125.697282	39.979540090	116.338915115	50.347581
41801	20367524	10.312618	-1.502879	4.696241	0.025788	-0.101110	-0.154139	-26.807888	-79.431503	125.624959	39.979540064	116.338915126	50.347205
41802	20367549	10.407849	-1.450513	4.663237	-0.004975	-0.107712	-0.153998	-26.739607	-79.456011	125.554736	39.979540038	116.338915138	50.346838
41803	20367574	10.545458	-1.442597	4.740500	-0.050472	-0.109783	-0.149067	-26.681646	-79.480452	125.488387	39.979540011	116.338915149	50.346482
41804	20367599	10.709094	-1.499446	4.852114	-0.081906	-0.115155	-0.151439	-26.628123	-79.505722	125.421977	39.979539985	116.338915161	50.346133
41805	20367624	10.805467	-1.565447	4.842705	-0.111322	-0.117522	-0.155620	-26.576452	-79.531552	125.353172	39.979539959	116.338915173	50.345795
41806	20367649	10.859090	-1.616472	4.863825	-0.145885	-0.115514	-0.159785	-26.525847	-79.557380	125.280422	39.979539932	116.338915185	50.345467
41807	20367674	10.886635	-1.499815	4.938677	-0.178790	-0.117514	-0.157280	-26.482099	-79.583293	125.209857	39.979539905	116.338915197	50.345704
41808	20367699	10.973198	-1.614223	4.979537	-0.205044	-0.129433	-0.144467	-26.454938	-79.609909	125.152339	39.979539878	116.338915209	50.345400
41809	20367724	11.050127	-1.821920	4.952317	-0.232299	-0.144273	-0.127706	-26.448397	-79.637355	125.111820	39.979539851	116.338915221	50.345108
41810	20367749	11.091252	-1.956821	4.957237	-0.266427	-0.155745	-0.122562	-26.454254	-79.665945	125.078938	39.979539824	116.338915233	50.344830
41811	20367774	11.126999	-2.020075	4.949071	-0.291956	-0.168455	-0.115214	-26.473341	-79.695696	125.055790	39.979539796	116.338915246	50.344566
41812	20367799	11.173736	-2.084764	4.962191	-0.317700	-0.175643	-0.107306	-26.504232	-79.725866	125.040894	39.979539769	116.338915258	50.344313
41813	20367824	11.221729	-2.192281	5.004353	-0.336090	-0.190118	-0.106746	-26.543327	-79.757856	125.031659	39.979539741	116.338915271	50.344074
41814	20367849	11.180143	-2.258570	5.067937	-0.363316	-0.212951	-0.110583	-26.591811	-79.793019	125.028003	39.979539713	116.338915284	50.343849
41815	20367874	11.111033	-2.280852	5.133025	-0.391646	-0.238615	-0.108781	-26.654981	-79.831352	125.035144	39.979539685	116.338915296	50.347176
41816	20367899	11.155148	-2.212204	5.170504	-0.420094	-0.262275	-0.109234	-26.730695	-79.872742	125.050890	39.979539656	116.338915309	50.346981
41817	20367924	11.253124	-2.060922	5.195064	-0.436944	-0.279349	-0.105138	-26.818341	-79.916047	125.076301	39.979539628	116.338915323	50.346800
41818	20367949	11.377178	-2.047151	5.183235	-0.443997	-0.293794	-0.098076	-26.917862	-79.960733	125.112745	39.979539599	116.338915336	50.346633
41819	20367974	11.447468	-2.067723	5.176510	-0.445756	-0.300990	-0.088717	-27.027674	-80.005717	125.159376	39.979539570	116.338915349	50.346484
41820	20367999	11.488748	-2.088389	5.180505	-0.426137	-0.302203	-0.087871	-27.136438	-80.050786	125.207791	39.979539541	116.338915363	50.346348
41821	20368024	11.613980	-2.161467	5.213569	-0.421631	-0.307627	-0.090465	-27.245409	-80.096700	125.257065	39.979539512	116.338915376	50.346228
41822	20368049	11.751658	-2.161662	5.261529	-0.413352	-0.309852	-0.098932	-27.348566	-80.143437	125.301633	39.979539483	116.338915390	50.346124
41823	20368074	11.853797	-2.121704	5.219142	-0.405315	-0.320619	-0.098604	-27.455619	-80.191509	125.351319	39.979539453	116.338915404	50.341662
41824	20368099	11.921385	-2.138003	5.176629	-0.397053	-0.317967	-0.098416	-27.561370	-80.239214	125.400877	39.979539423	116.338915418	50.341590
41825	20368124	12.089647	-2.078795	5.158263	-0.400415	-0.315784	-0.101574	-27.665175	-80.286837	125.447963	39.979539393	116.338915432	50.341536
41826	20368149	12.212417	-2.070370	5.109175	-0.399317	-0.312123	-0.098673	-27.770288	-80.333787	125.496530	39.979539363	116.338915446	50.341502
41827	20368174	12.437105	-2.075818	5.076021	-0.398049	-0.313541	-0.101100	-27.874711	-80.381065	125.544575	39.979539333	116.338915460	50.341493
41828	20368199	12.649601	-2.008197	5.011168	-0.400077	-0.312913	-0.106381	-27.975962	-80.428602	125.589101	39.979539303	116.338915475	50.341500
41829	20368224	12.877239	-1.984466	4.912986	-0.398167	-0.316693	-0.097558	-28.085827	-80.476010	125.642633	39.979539272	116.338915489	50.341531
41830	20368249	13.078789	-1.911191	4.814939	-0.390428	-0.306249	-0.090399	-28.196579	-80.521598	125.698182	39.979539241	116.338915504	50.341586
41831	20368274	13.251376	-1.890103	4.680800	-0.380565	-0.304204	-0.081077	-28.312956	-80.566278	125.760858	39.979539210	116.338915518	50.341340
41832	20368299	13.448611	-1.952978	4.572986	-0.367388	-0.297067	-0.081660	-28.424906	-80.610077	125.820951	39.979539179	116.338915533	50.341446
41835	20368324	13.640629	-1.849357	4.447091	-0.349005	-0.289710	-0.088485	-28.526744	-80.653397	125.873457	39.979539148	116.338915548	50.341579
41836	20368349	13.737706	-1.778407	4.243879	-0.320756	-0.282091	-0.097370	-28.615232	-80.696354	125.916528	39.979539117	116.338915563	50.341741
41837	20368374	13.801627	-1.726761	4.047287	-0.307019	-0.273579	-0.103112	-28.706868	-80.718576	125.730856	39.979540542	116.338914269	50.330789
41838	20368399	13.804843	-1.731526	3.861084	-0.305909	-0.245413	-0.108464	-28.770264	-80.757669	125.750649	39.979540512	116.338914283	50.330970
41839	20368424	13.743332	-1.721172	3.662894	-0.330973	-0.217162	-0.134510	-28.805403	-80.795008	125.738177	39.979540481	116.338914296	50.331178
41840	20368449	13.803044	-1.649175	3.518213	-0.364636	-0.185066	-0.135301	-28.831125	-80.828376	125.711281	39.979540451	116.338914310	50.331415
41841	20368474	13.915217	-1.574244	3.337645	-0.436227	-0.138485	-0.124465	-28.855574	-80.855152	125.672711	39.979540420	116.338914324	50.331163
41842	20368499	13.773683	-1.622927	3.140612	-0.497548	-0.099477	-0.105892	-28.886494	-80.875753	125.631802	39.979540389	116.338914338	50.331455
41843	20368524	13.729692	-1.750495	3.028389	-0.535300	-0.058731	-0.108296	-28.903340	-80.891414	125.571164	39.979540358	116.338914352	50.331774
41844	20368549	13.664049	-1.751111	2.820878	-0.566784	-0.019939	-0.093068	-28.919790	-80.901159	125.505560	39.979540327	116.338914366	50.332119
41845	20368574	13.547347	-1.805355	2.614511	-0.588614	0.024633	-0.079715	-28.930507	-80.904393	125.430983	39.979540297	116.338914381	50.332488
41846	20368599	13.396039	-1.966871	2.410395	-0.580235	0.068529	-0.070523	-28.928223	-80.901488	125.344457	39.979540266	116.338914395	50.332884
41847	20368624	13.188261	-2.072114	2.230353	-0.558902	0.115332	-0.068831	-28.904037	-80.892595	125.238841	39.979540235	116.338914409	50.333304
41848	20368649	12.955717	-2.153881	2.038459	-0.524111	0.152536	-0.083806	-28.847280	-80.880059	125.105283	39.979540204	116.338914424	50.333747
41849	20368674	12.725967	-2.164226	1.878725	-0.470886	0.196554	-0.095375	-28.755277	-80.862769	124.943742	39.979540173	116.338914438	50.333637
41850	20368699	12.467377	-2.162105	1.685717	-0.409062	0.240906	-0.101151	-28.631528	-80.840255	124.759008	39.979540142	116.338914453	50.334119
41851	20368724	12.261112	-2.147662	1.523333	-0.339551	0.279561	-0.109819	-28.475521	-80.813399	124.551670	39.979540111	116.338914467	50.334618
41852	20368749	12.021878	-2.098713	1.329206	-0.260302	0.321038	-0.115336	-28.287600	-80.781593	124.323485	39.979540080	116.338914482	50.335133
41853	20368774	11.786652	-2.065085	1.182898	-0.179894	0.367469	-0.124489	-28.063303	-80.744412	124.070091	39.979540049	116.338914497	50.335655
41854	20368799	11.613412	-1.990326	1.075314	-0.101772	0.412717	-0.136550	-27.801943	-80.702142	123.790455	39.979540018	116.338914512	50.336197
41855	20368824	11.470326	-1.897939	1.034245	-0.034729	0.448683	-0.143905	-27.513304	-80.655582	123.492869	39.979539987	116.338914527	50.336751
41856	20368849	11.327444	-1.803916	0.912101	0.025274	0.475113	-0.153759	-27.200944	-80.606057	123.179913	39.979539956	116.338914542	50.337316
41857	20368874	11.195569	-1.664586	0.834000	0.072710	0.513503	-0.157638	-26.867164	-80.551599	122.852084	39.979539926	116.338914557	50.337242
41858	20368899	11.147647	-1.517209	0.799833	0.115849	0.532851	-0.168245	-26.515504	-80.495027	122.512340	39.979539895	116.338914572	50.337825
41859	20368924	11.028068	-1.395883	0.742982	0.147097	0.546752	-0.171655	-26.155660	-80.436541	122.168778	39.979539864	116.338914587	50.338417
41860	20368949	10.967815	-1.237436	0.684918	0.153583	0.550105	-0.163378	-25.804230	-80.376753	121.834632	39.979539834	116.338914602	50.339016
41861	20368974	10.939121	-1.066781	0.682761	0.159410	0.548628	-0.160065	-25.459245	-80.316612	121.507811	39.979539803	116.338914618	50.339621
41862	20368999	10.958759	-0.920699	0.630056	0.151879	0.532793	-0.152509	-25.130802	-80.257739	121.196621	39.979539773	116.338914633	50.340235
41863	20369024	10.922034	-0.724953	0.549530	0.145423	0.516762	-0.152989	-24.812341	-80.200680	120.894566	39.979539742	116.338914648	50.340856
41864	20369049	10.856427	-0.478385	0.483828	0.132699	0.492996	-0.146219	-24.512498	-80.146035	120.609507	39.979539712	116.338914663	50.341484
41865	20369074	10.783806	-0.274479	0.427250	0.121991	0.469865	-0.139380	-24.230311	-80.093758	120.340767	39.979539682	116.338914678	50.340437
41866	20369099	10.755400	-0.066352	0.341470	0.110552	0.440048	-0.134863	-23.965897	-80.044896	120.088365	39.979539652	116.338914693	50.341075
41867	20369124	10.655448	0.194158	0.233206	0.094906	0.400679	-0.129174	-23.723336	-80.000670	119.855839	39.979539621	116.338914708	50.341718
41868	20369149	10.584450	0.412095	0.095572	0.075755	0.375621	-0.112413	-23.506117	-79.958610	119.646232	39.979539591	116.338914723	50.342365
41869	20369174	10.547682	0.583083	0.020303	0.056826	0.345022	-0.109771	-23.305090	-79.920289	119.450290	39.979539561	116.338914738	50.343012
41870	20369199	10.548138	0.782914	-0.050898	0.038998	0.313817	-0.113277	-23.115357	-79.886158	119.263204	39.979539532	116.338914753	50.343666
41871	20369224	10.525621	1.119315	-0.218632	0.015838	0.278799	-0.109914	-22.943605	-79.856351	119.090995	39.979539502	116.338914767	50.344323
41872	20369249	10.531928	1.440365	-0.346603	-0.013538	0.255629	-0.107357	-22.786105	-79.829373	118.928975	39.979539472	116.338914782	50.344983
41873	20369274	10.594956	1.792043	-0.550189	-0.062150	0.229226	-0.090311	-22.657029	-79.804869	118.788746	39.979539443	116.338914796	50.343883
41874	20369299	10.628781	2.054078	-0.702277	-0.109296	0.215100	-0.070381	-22.554270	-79.781085	118.668385	39.979539413	116.338914810	50.344547
41875	20369324	10.757385	2.205817	-0.794770	-0.174393	0.200404	-0.060068	-22.473349	-79.758646	118.560729	39.979539384	116.338914824	50.345213
41876	20369349	10.818696	2.447106	-0.922945	-0.224267	0.183147	-0.053658	-22.409864	-79.738118	118.463527	39.979539355	116.338914837	50.345882
41877	20369374	10.834469	2.636179	-1.061927	-0.278555	0.173484	-0.044151	-22.364315	-79.718334	118.376644	39.979539325	116.338914851	50.346556
41878	20369399	10.914906	2.803106	-1.173095	-0.318404	0.168307	-0.042637	-22.327372	-79.699142	118.292701	39.979539297	116.338914864	50.347232
41879	20369424	10.941643	3.001636	-1.277462	-0.356174	0.161393	-0.046381	-22.295395	-79.681061	118.208300	39.979539268	116.338914876	50.347911
41880	20369449	10.964037	3.133951	-1.335546	-0.388727	0.155723	-0.031173	-22.281020	-79.662899	118.137048	39.979539239	116.338914889	50.348594
41881	20369474	11.041496	3.222255	-1.403043	-0.421464	0.154020	-0.021818	-22.278776	-79.644454	118.073357	39.979539211	116.338914901	50.347434
41882	20369499	11.062529	3.339479	-1.475741	-0.445491	0.156853	-0.008819	-22.288662	-79.624927	118.018493	39.979539182	116.338914913	50.348123
41883	20369524	11.051667	3.349379	-1.540925	-0.453276	0.160223	0.007440	-22.310497	-79.604073	117.974641	39.979539154	116.338914924	50.348816
41884	20369549	10.985561	3.312396	-1.580972	-0.449725	0.172997	0.018449	-22.336028	-79.580930	117.935061	39.979539126	116.338914935	50.349512
41885	20369574	10.985664	3.297380	-1.624906	-0.440717	0.181966	0.029500	-22.365599	-79.556001	117.900897	39.979539098	116.338914946	50.350209
41886	20369599	10.872639	3.201264	-1.669159	-0.418192	0.208236	0.046362	-22.396298	-79.526676	117.871158	39.979539071	116.338914957	50.350911
41887	20369624	10.843314	2.976851	-1.641959	-0.400883	0.227679	0.055647	-22.425430	-79.494272	117.842344	39.979539043	116.338914967	50.351616
41888	20369649	10.721747	2.752618	-1.654754	-0.385845	0.248918	0.062466	-22.451026	-79.458686	117.812122	39.979539016	116.338914977	50.352322
41889	20369674	10.590383	2.477373	-1.635749	-0.362538	0.284834	0.064558	-22.464273	-79.418232	117.772730	39.979538989	116.338914987	50.352985
41890	20369699	10.458946	2.192357	-1.590199	-0.344098	0.321320	0.062217	-22.462697	-79.373078	117.720938	39.979538962	116.338914996	50.353693
41891	20369724	10.341087	1.832936	-1.507649	-0.335367	0.370117	0.060287	-22.444596	-79.321568	117.653598	39.979538935	116.338915005	50.354401
41892	20369749	10.260407	1.447345	-1.433166	-0.341736	0.415461	0.051023	-22.408288	-79.264555	117.566786	39.979538908	116.338915014	50.355109
41893	20369774	10.175639	1.164766	-1.306470	-0.339331	0.470388	0.047347	-22.354051	-79.200454	117.462057	39.979538882	116.338915023	50.355815
41894	20369799	10.075465	0.767890	-1.150902	-0.337856	0.521186	0.038953	-22.280382	-79.130057	117.337735	39.979538856	116.338915032	50.356522
41895	20369824	10.046958	0.449260	-0.957798	-0.328414	0.569679	0.029437	-22.186550	-79.053711	117.194227	39.979538829	116.338915041	50.357228
41896	20369849	10.028053	0.144315	-0.739398	-0.316010	0.625353	0.017235	-22.068906	-78.970587	117.028232	39.979538803	116.338915049	50.357933
41897	20369874	9.985684	-0.151094	-0.499686	-0.294215	0.667571	0.000712	-21.927603	-78.882672	116.841264	39.979538777	116.338915058	50.355619
41898	20369899	9.913401	-0.340129	-0.360659	-0.260526	0.704213	-0.007088	-21.769008	-78.790206	116.641530	39.979538752	116.338915066	50.356321
41899	20369924	9.890507	-0.559690	-0.139342	-0.226349	0.744306	-0.017218	-21.591146	-78.692827	116.427077	39.979538726	116.338915074	50.357021
41900	20369949	9.911545	-0.805677	0.123191	-0.192378	0.775753	-0.025272	-21.398314	-78.591544	116.202244	39.979538700	116.338915083	50.357721
41901	20369974	9.935400	-0.966440	0.413955	-0.150146	0.796481	-0.037454	-21.189868	-78.487974	115.967570	39.979538675	116.338915091	50.358424
41902	20369999	9.913872	-1.103650	0.676803	-0.115384	0.810129	-0.041090	-20.974639	-78.382596	115.730969	39.979538649	116.338915100	50.359125
41903	20370024	9.851242	-1.195240	0.874600	-0.081894	0.825291	-0.041088	-20.754982	-78.275009	115.494653	39.979538624	116.338915108	50.359827
41904	20370049	9.829980	-1.237326	1.088588	-0.047590	0.830454	-0.040260	-20.533861	-78.166505	115.261770	39.979538599	116.338915116	50.360530
41905	20370074	9.874925	-1.276579	1.277314	-0.013483	0.826299	-0.036280	-20.315496	-78.058178	115.036602	39.979538574	116.338915125	50.361955
41906	20370099	9.863424	-1.314352	1.444772	0.016783	0.815942	-0.039741	-20.097000	-77.951239	114.815643	39.979538548	116.338915133	50.362660
41907	20370124	9.796977	-1.313397	1.563112	0.036429	0.799875	-0.036369	-19.885301	-77.846126	114.604427	39.979538523	116.338915142	50.363367
41908	20370149	9.726589	-1.210660	1.684400	0.047296	0.785966	-0.033446	-19.680570	-77.742585	114.401850	39.979538498	116.338915150	50.364075
41909	20370174	9.643418	-1.129041	1.928004	0.034383	0.761035	-0.024478	-19.492047	-77.641832	114.213889	39.979538473	116.338915159	50.364782
41910	20370199	9.564185	-1.204231	2.161754	-0.001211	0.734481	-0.008029	-19.327399	-77.543761	114.045084	39.979538448	116.338915168	50.365491
41911	20370224	9.491981	-1.189941	2.398473	-0.073880	0.692336	-0.006552	-19.185521	-77.451222	113.888877	39.979538423	116.338915176	50.366200
41912	20370249	9.400445	-1.144153	2.663213	-0.155772	0.643773	0.000562	-19.071930	-77.364846	113.749581	39.979538398	116.338915185	50.366910
41913	20370274	9.317199	-1.058549	2.948060	-0.246270	0.578721	0.014341	-18.994666	-77.286585	113.634188	39.979538372	116.338915194	50.367239
41914	20370299	9.220201	-0.971426	3.216932	-0.335154	0.504054	0.020921	-18.950476	-77.218104	113.539618	39.979538347	116.338915202	50.367948
41915	20370324	9.098588	-0.874486	3.415363	-0.414021	0.424804	0.039393	-18.945401	-77.159492	113.473551	39.979538322	116.338915211	50.368656
41916	20370349	9.000398	-0.821447	3.587066	-0.485010	0.347035	0.063771	-18.981014	-77.110285	113.438777	39.979538296	116.338915220	50.369363
41917	20370374	8.880200	-0.814936	3.712062	-0.532094	0.262700	0.084063	-19.052455	-77.071558	113.433835	39.979538271	116.338915229	50.370066
41918	20370399	8.816680	-0.808292	3.766570	-0.567187	0.180285	0.101693	-19.155873	-77.043162	113.456544	39.979538245	116.338915238	50.370769
41919	20370424	8.747901	-0.772329	3.736080	-0.564581	0.109793	0.104089	-19.274477	-77.024177	113.495222	39.979538219	116.338915247	50.371470
41920	20370449	8.757799	-0.726612	3.655096	-0.536618	0.047809	0.108887	-19.404419	-77.013324	113.549649	39.979538193	116.338915255	50.372168
41921	20370474	8.701599	-0.651996	3.580866	-0.482883	-0.012407	0.119534	-19.545223	-77.010065	113.623122	39.979538168	116.338915264	50.373318
41922	20370499	8.660615	-0.639021	3.438608	-0.405626	-0.056815	0.118539	-19.683601	-77.012806	113.705464	39.979538142	116.338915273	50.374010
41923	20370524	8.607201	-0.624800	3.313611	-0.318122	-0.090140	0.114106	-19.813909	-77.020210	113.792384	39.979538116	116.338915282	50.374698
41924	20370549	8.599255	-0.584451	3.199371	-0.235744	-0.111902	0.111124	-19.935404	-77.030648	113.882366	39.979538089	116.338915291	50.375382
41925	20370574	8.583078	-0.535838	3.079860	-0.160417	-0.117348	0.109524	-20.046496	-77.041857	113.972742	39.979538063	116.338915300	50.376060
41926	20370599	8.579319	-0.483109	2.961657	-0.100219	-0.119069	0.109999	-20.149785	-77.053236	114.063955	39.979538037	116.338915309	50.376735
41927	20370624	8.549293	-0.452462	2.859354	-0.045007	-0.118111	0.111316	-20.245897	-77.064385	114.155913	39.979538011	116.338915318	50.377404
41928	20370649	8.560663	-0.410753	2.747757	-0.006080	-0.114395	0.104968	-20.332070	-77.075318	114.243392	39.979537984	116.338915326	50.378069
41929	20370674	8.538869	-0.435070	2.630634	0.020696	-0.103696	0.107239	-20.413548	-77.084671	114.329984	39.979537958	116.338915335	50.381928
41930	20370699	8.523900	-0.430670	2.552187	0.019896	-0.093339	0.109108	-20.494092	-77.092514	114.415497	39.979537931	116.338915344	50.382584
41931	20370724	8.427429	-0.513038	2.507945	-0.003232	-0.081065	0.098856	-20.569349	-77.099200	114.492186	39.979537905	116.338915353	50.383234
41932	20370749	8.007924	-0.451410	2.208760	-0.036247	-0.047731	0.110297	-20.648759	-77.100816	114.568283	39.979537878	116.338915362	50.383876
41933	20370774	8.088011	-0.088658	2.365605	0.009386	0.029728	0.175729	-20.742765	-77.088716	114.666061	39.979537852	116.338915370	50.384503
41936	20370799	8.341334	-0.758403	2.638799	0.099380	0.073829	0.198841	-20.827397	-77.069500	114.767454	39.979537825	116.338915379	50.385129
41937	20370824	8.350378	-1.058564	2.698945	0.176948	0.080283	0.156286	-20.874451	-77.051565	114.841697	39.979537798	116.338915388	50.385748
41938	20370849	8.202055	-0.876571	2.597063	0.238988	0.076672	0.102499	-20.881997	-77.036850	114.884524	39.979537771	116.338915397	50.386360
41939	20370874	7.998959	-0.503161	2.473176	0.270523	0.083786	0.074968	-20.900863	-77.018460	114.728494	39.979537755	116.338914630	50.354451
41940	20370899	8.035282	-0.251237	2.424776	0.270441	0.085251	0.075410	-20.886163	-77.003979	114.753120	39.979537728	116.338914638	50.354942
41941	20370924	8.089114	-0.248371	2.387600	0.230517	0.085916	0.093819	-20.887682	-76.988469	114.788523	39.979537702	116.338914646	50.355425
41942	20370949	7.987110	-0.392548	2.317867	0.152509	0.085379	0.106137	-20.907566	-76.972400	114.831309	39.979537675	116.338914654	50.355899
41943	20370974	7.833043	-0.438804	2.181981	0.057413	0.087309	0.104317	-20.939512	-76.956161	114.872496	39.979537648	116.338914662	50.356360
41944	20370999	7.790573	-0.471344	2.051530	-0.038405	0.101845	0.110713	-20.985553	-76.937644	114.914068	39.979537621	116.338914670	50.356813
41945	20371024	7.764562	-0.438166	2.006419	-0.141314	0.119212	0.115216	-21.044949	-76.916565	114.954220	39.979537594	116.338914678	50.357255
41946	20371049	7.724626	-0.429847	2.001079	-0.242841	0.137189	0.126208	-21.121045	-76.892507	114.996590	39.979537567	116.338914686	50.357686
41947	20371074	7.702738	-0.406245	1.949289	-0.327718	0.151843	0.128543	-21.207162	-76.866357	115.036771	39.979537540	116.338914693	50.356360
41948	20371099	7.714023	-0.338560	1.885663	-0.398010	0.174230	0.124012	-21.295522	-76.837439	115.068920	39.979537513	116.338914701	50.356766
41949	20371124	7.737580	-0.258740	1.883277	-0.446750	0.191973	0.123866	-21.386562	-76.806150	115.096655	39.979537486	116.338914709	50.357161
41950	20371149	7.696201	-0.176365	1.943383	-0.467442	0.202373	0.118791	-21.475089	-76.773730	115.118768	39.979537459	116.338914717	50.357544
41951	20371174	7.671254	-0.143674	2.024582	-0.475174	0.213584	0.117968	-21.561489	-76.739852	115.137561	39.979537432	116.338914725	50.357914
41952	20371199	7.577553	-0.113384	2.040583	-0.452927	0.209986	0.117071	-21.644739	-76.706494	115.156395	39.979537405	116.338914732	50.358274
41953	20371224	7.486686	-0.091293	2.018024	-0.415219	0.208987	0.113213	-21.720398	-76.673468	115.172980	39.979537378	116.338914740	50.358620
41954	20371249	7.434429	-0.069122	1.987489	-0.362264	0.211909	0.106406	-21.783789	-76.640409	115.184755	39.979537351	116.338914748	50.358953
41955	20371274	7.302169	0.000982	2.019545	-0.301033	0.225429	0.093301	-21.827893	-76.606247	115.185723	39.979537324	116.338914755	50.357492
41956	20371299	7.183498	0.015829	2.092676	-0.250322	0.224268	0.088605	-21.862275	-76.572489	115.184164	39.979537296	116.338914763	50.357796
41957	20371324	7.034453	0.005922	2.174986	-0.197418	0.218801	0.080290	-21.885609	-76.539902	115.179036	39.979537269	116.338914770	50.358084
41958	20371349	6.944611	0.002758	2.290634	-0.156131	0.211851	0.081244	-21.905069	-76.508188	115.176005	39.979537242	116.338914778	50.358357
41959	20371374	6.889197	-0.011390	2.396956	-0.116028	0.195727	0.074536	-21.918628	-76.478976	115.172813	39.979537215	116.338914785	50.358611
41960	20371399	6.846182	0.004641	2.527319	-0.072667	0.178131	0.067417	-21.925942	-76.452483	115.169586	39.979537187	116.338914792	50.358851
41961	20371424	6.786744	0.048307	2.628501	-0.041907	0.155863	0.059952	-21.929672	-76.429348	115.167203	39.979537160	116.338914800	50.359075
41962	20371449	6.703991	0.119623	2.696504	-0.010554	0.124531	0.060223	-21.935995	-76.410362	115.172108	39.979537133	116.338914807	50.359283
41963	20371474	6.607487	0.142907	2.729790	0.017346	0.093280	0.057766	-21.943869	-76.395659	115.182721	39.979537105	116.338914814	50.360454
41964	20371499	6.530276	0.092027	2.721595	0.025950	0.058737	0.054215	-21.956182	-76.385735	115.199171	39.979537078	116.338914821	50.360627
41965	20371524	6.407378	0.061483	2.799906	0.033192	0.033961	0.050895	-21.971097	-76.379280	115.219365	39.979537050	116.338914829	50.360782
41966	20371549	6.375636	0.038044	2.809110	0.045069	0.008866	0.047739	-21.988119	-76.376325	115.243477	39.979537022	116.338914836	50.360919
41967	20371574	6.398724	-0.048955	2.891302	0.038663	-0.008568	0.042301	-22.006930	-76.375977	115.268488	39.979536994	116.338914843	50.361036
41968	20371599	6.428801	-0.101537	2.960288	0.027566	-0.036147	0.032000	-22.027801	-76.379841	115.293981	39.979536966	116.338914850	50.361135
41969	20371624	6.392965	-0.146848	2.936198	0.011313	-0.064234	0.033587	-22.058121	-76.387347	115.326801	39.979536938	116.338914857	50.361217
41970	20371649	6.380697	-0.176853	2.861626	-0.006600	-0.080453	0.028434	-22.091827	-76.397279	115.360463	39.979536910	116.338914864	50.361279
41971	20371674	6.378152	-0.186136	2.772477	-0.038095	-0.091970	0.030835	-22.133982	-76.408604	115.398176	39.979536882	116.338914871	50.362261
41972	20371699	6.375468	-0.234071	2.705844	-0.065440	-0.092411	0.028732	-22.179067	-76.420094	115.434870	39.979536854	116.338914878	50.362287
41973	20371724	6.375449	-0.313742	2.669663	-0.090994	-0.087456	0.031608	-22.228349	-76.430765	115.472116	39.979536826	116.338914885	50.362295
41974	20371749	6.365724	-0.383863	2.657453	-0.115798	-0.080894	0.035927	-22.282150	-76.440324	115.510354	39.979536797	116.338914891	50.362284
41975	20371774	6.360156	-0.436136	2.651968	-0.128295	-0.078663	0.039844	-22.339456	-76.449365	115.550354	39.979536769	116.338914898	50.362254
41976	20371799	6.339513	-0.496504	2.605202	-0.127643	-0.073972	0.044243	-22.398089	-76.457536	115.591814	39.979536741	116.338914905	50.362205
41977	20371824	6.328402	-0.537803	2.613045	-0.128192	-0.063565	0.045297	-22.455075	-76.464261	115.631498	39.979536712	116.338914912	50.362137
41978	20371849	6.311925	-0.539120	2.593066	-0.108550	-0.055434	0.052355	-22.511325	-76.469514	115.673317	39.979536683	116.338914919	50.362051
41979	20371874	6.321492	-0.559796	2.608970	-0.092722	-0.050259	0.052349	-22.564158	-76.474074	115.713953	39.979536655	116.338914926	50.360076
41980	20371899	6.300901	-0.565183	2.575693	-0.066169	-0.039767	0.056948	-22.613345	-76.476985	115.754751	39.979536626	116.338914933	50.359950
41981	20371924	6.266283	-0.594261	2.628760	-0.035657	-0.038689	0.067613	-22.663795	-76.479157	115.801342	39.979536597	116.338914940	50.359804
41982	20371949	6.195939	-0.628669	2.633919	-0.006206	-0.043730	0.076015	-22.715820	-76.481521	115.853891	39.979536568	116.338914946	50.359639
41983	20371974	6.171216	-0.592865	2.624724	0.025995	-0.053033	0.071561	-22.762947	-76.485350	115.906145	39.979536539	116.338914953	50.359453
41984	20371999	6.218179	-0.554255	2.604937	0.050108	-0.055198	0.076593	-22.809914	-76.489176	115.961787	39.979536510	116.338914960	50.359248
41985	20372024	6.230573	-0.467760	2.651773	0.076646	-0.057216	0.083213	-22.857212	-76.492889	116.021678	39.979536481	116.338914967	50.359024
41986	20372049	6.271968	-0.361982	2.697357	0.109713	-0.068364	0.093910	-22.908269	-76.497466	116.090305	39.979536452	116.338914974	50.358780
41987	20372074	6.233362	-0.361971	2.703987	0.141901	-0.081825	0.102584	-22.962655	-76.503319	116.167095	39.979536423	116.338914981	50.359509
41988	20372099	6.191996	-0.382624	2.703866	0.155723	-0.094782	0.114007	-23.024422	-76.510224	116.253510	39.979536393	116.338914988	50.359227
41989	20372124	6.134186	-0.405843	2.658564	0.154239	-0.099558	0.116761	-23.089110	-76.517581	116.342707	39.979536364	116.338914995	50.358925
41990	20372149	6.105275	-0.338500	2.685379	0.148721	-0.103693	0.115339	-23.154864	-76.525539	116.432185	39.979536335	116.338915001	50.358603
41991	20372174	6.112165	-0.272622	2.729476	0.136805	-0.109783	0.117634	-23.225115	-76.534145	116.524529	39.979536305	116.338915008	50.358259
41992	20372199	6.077786	-0.223077	2.730950	0.125046	-0.120468	0.122137	-23.302161	-76.543875	116.622125	39.979536276	116.338915015	50.357896
41993	20372224	6.054350	-0.218955	2.732283	0.111762	-0.129305	0.123294	-23.383974	-76.554670	116.722661	39.979536246	116.338915022	50.357512
41994	20372249	6.070958	-0.191374	2.720413	0.096586	-0.140090	0.129154	-23.473908	-76.566514	116.829307	39.979536216	116.338915029	50.357108
41995	20372274	6.058536	-0.194180	2.732361	0.091890	-0.146057	0.124034	-23.563303	-76.579395	116.934703	39.979536186	116.338915035	50.356777
41996	20372299	6.044845	-0.198164	2.693791	0.086404	-0.153451	0.120918	-23.653739	-76.593386	117.040354	39.979536156	116.338915042	50.356332
41997	20372324	6.028335	-0.203587	2.673803	0.077966	-0.153187	0.121038	-23.745589	-76.607298	117.146211	39.979536126	116.338915049	50.355865
41998	20372349	6.018763	-0.184221	2.651266	0.074768	-0.149886	0.117114	-23.835138	-76.620964	117.249225	39.979536096	116.338915056	50.355378
41999	20372374	5.994068	-0.170349	2.623345	0.067675	-0.150515	0.117059	-23.926023	-76.634679	117.352562	39.979536066	116.338915062	50.354869
42000	20372399	5.985735	-0.199282	2.631228	0.065725	-0.144187	0.116472	-24.015507	-76.647561	117.454167	39.979536036	116.338915069	50.354339
42001	20372424	5.995305	-0.224099	2.641815	0.059438	-0.143796	0.116549	-24.106022	-76.660352	117.555900	39.979536006	116.338915075	50.353788
42002	20372449	6.035149	-0.257254	2.673633	0.058582	-0.139871	0.120057	-24.197805	-76.672386	117.658805	39.979535975	116.338915082	50.353215
42003	20372474	6.090155	-0.272550	2.712187	0.048544	-0.142784	0.118978	-24.291332	-76.684826	117.762020	39.979535945	116.338915089	50.350929
42004	20372499	6.088778	-0.256044	2.720221	0.047569	-0.146630	0.116086	-24.384548	-76.697900	117.864766	39.979535914	116.338915095	50.350314
42005	20372524	6.102650	-0.238081	2.697672	0.041467	-0.153019	0.116356	-24.480584	-76.711752	117.969506	39.979535884	116.338915102	50.349679
42006	20372549	6.120605	-0.209194	2.695113	0.043361	-0.158152	0.120334	-24.580051	-76.725995	118.078044	39.979535853	116.338915108	50.349023
42007	20372574	6.124807	-0.154154	2.697977	0.055501	-0.162978	0.128539	-24.683756	-76.740332	118.192717	39.979535822	116.338915115	50.348347
42008	20372599	6.192382	-0.148601	2.682048	0.067249	-0.167948	0.135486	-24.791119	-76.754851	118.312869	39.979535792	116.338915121	50.347651
42009	20372624	6.262708	-0.171863	2.650111	0.085728	-0.179902	0.138159	-24.900627	-76.770711	118.437936	39.979535761	116.338915127	50.346935
42010	20372649	6.340081	-0.130379	2.594431	0.096296	-0.189064	0.140135	-25.012356	-76.787586	118.566832	39.979535730	116.338915134	50.346199
42011	20372674	6.427097	-0.066925	2.548140	0.117926	-0.186765	0.138867	-25.119990	-76.804181	118.694694	39.979535699	116.338915140	50.351417
42012	20372699	6.552657	0.007443	2.525842	0.139579	-0.189082	0.137663	-25.224757	-76.821098	118.822789	39.979535668	116.338915146	50.350650
42013	20372724	6.681014	0.085973	2.495594	0.162673	-0.196213	0.132959	-25.325777	-76.839173	118.950424	39.979535636	116.338915153	50.349864
42014	20372749	6.809275	0.138298	2.483868	0.184619	-0.193787	0.131439	-25.422484	-76.856978	119.076848	39.979535605	116.338915159	50.349061
42015	20372774	6.965185	0.244289	2.465705	0.208257	-0.194156	0.129311	-25.515021	-76.874913	119.202459	39.979535574	116.338915165	50.348246
42016	20372799	7.127813	0.280000	2.476563	0.223310	-0.196411	0.127620	-25.605360	-76.893200	119.328017	39.979535542	116.338915171	50.347412
42017	20372824	7.304289	0.377592	2.495633	0.226969	-0.186276	0.123000	-25.690203	-76.910420	119.448462	39.979535511	116.338915177	50.346563
42018	20372849	7.498493	0.439192	2.570405	0.238527	-0.180352	0.121087	-25.771006	-76.926955	119.566450	39.979535480	116.338915183	50.345702
42019	20372874	7.666400	0.473158	2.679679	0.238863	-0.179595	0.116071	-25.849021	-76.943669	119.681618	39.979535448	116.338915189	50.343293
42020	20372899	7.848267	0.562305	2.741247	0.228091	-0.181726	0.111789	-25.927022	-76.960890	119.795179	39.979535416	116.338915195	50.342407
42021	20372924	8.054860	0.649982	2.837441	0.212197	-0.180887	0.114563	-26.008869	-76.977793	119.910343	39.979535385	116.338915200	50.341511
42022	20372949	8.286131	0.693514	2.958754	0.186059	-0.176898	0.119202	-26.096212	-76.993852	120.027298	39.979535353	116.338915206	50.340607
42023	20372974	8.494052	0.746768	3.054800	0.155285	-0.182088	0.119914	-26.190038	-77.010492	120.146375	39.979535321	116.338915211	50.339703
42024	20372999	8.719663	0.707654	3.195778	0.116171	-0.189310	0.119875	-26.291710	-77.028016	120.267746	39.979535289	116.338915217	50.338786
42025	20373024	8.961868	0.716741	3.328951	0.065900	-0.190938	0.123891	-26.403577	-77.045444	120.392181	39.979535257	116.338915222	50.337866
42026	20373049	9.166712	0.673385	3.500497	0.019683	-0.198367	0.130142	-26.527943	-77.063367	120.522639	39.979535225	116.338915227	50.336944
42027	20373074	9.408749	0.583342	3.647960	-0.031243	-0.214219	0.132090	-26.665491	-77.083129	120.659127	39.979535193	116.338915232	50.337517
42028	20373099	9.587267	0.454664	3.825834	-0.083071	-0.226550	0.132515	-26.814600	-77.104364	120.799849	39.979535161	116.338915237	50.336596
42029	20373124	9.769981	0.326060	3.974517	-0.145529	-0.246349	0.136633	-26.981066	-77.127775	120.949186	39.979535128	116.338915242	50.335678
42030	20373149	9.985874	0.220957	4.107255	-0.212950	-0.265494	0.125137	-27.156830	-77.154278	121.098141	39.979535096	116.338915246	50.334764
42031	20373174	10.164360	0.104599	4.294547	-0.279275	-0.280459	0.130224	-27.349944	-77.182246	121.255129	39.979535063	116.338915251	50.333862
42032	20373199	10.355398	-0.025298	4.424528	-0.350884	-0.307040	0.133336	-27.563578	-77.213264	121.422624	39.979535031	116.338915256	50.332959
42033	20373224	10.573963	-0.158017	4.569188	-0.426121	-0.332667	0.136356	-27.798168	-77.247185	121.600534	39.979534998	116.338915260	50.332064
42034	20373249	10.731997	-0.274004	4.677950	-0.490820	-0.352512	0.137503	-28.049687	-77.283374	121.786274	39.979534965	116.338915264	50.331179
42035	20373274	10.890076	-0.390030	4.769426	-0.553465	-0.378923	0.144137	-28.323119	-77.322261	121.985251	39.979534931	116.338915269	50.329091
42038	20373299	11.039918	-0.472958	4.863690	-0.605497	-0.398556	0.151667	-28.615674	-77.362890	122.196157	39.979534898	116.338915273	50.328227
42039	20373324	11.173229	-0.610859	4.931147	-0.655531	-0.418049	0.156507	-28.925768	-77.405388	122.417658	39.979534865	116.338915278	50.327376
42040	20373349	11.291332	-0.794100	4.983846	-0.691857	-0.434138	0.169431	-29.255164	-77.448730	122.653567	39.979534831	116.338915282	50.326539
42041	20373374	11.410813	-1.010246	5.023045	-0.720369	-0.449707	0.163639	-29.595492	-77.487909	122.782735	39.979535192	116.338915042	50.365924
42042	20373399	11.558090	-0.962505	5.109755	-0.734744	-0.468668	0.164364	-29.943188	-77.535293	123.031017	39.979535158	116.338915046	50.365239
42043	20373424	11.673724	-0.975101	5.155030	-0.743742	-0.482965	0.180519	-30.308190	-77.582952	123.295657	39.979535124	116.338915049	50.364571
42044	20373449	11.798938	-1.089378	5.165350	-0.745037	-0.495820	0.204270	-30.693405	-77.630096	123.580754	39.979535090	116.338915053	50.363920
42045	20373474	11.877357	-1.182918	5.163758	-0.740652	-0.511636	0.217955	-31.093565	-77.677758	123.881741	39.979535056	116.338915057	50.361547
42046	20373499	11.942114	-1.248861	5.126364	-0.715269	-0.516093	0.234497	-31.503597	-77.724277	124.196497	39.979535022	116.338915061	50.360930
42047	20373524	12.002758	-1.292729	5.090364	-0.679079	-0.511070	0.250359	-31.918310	-77.768507	124.521296	39.979534988	116.338915065	50.360332
42048	20373549	12.103424	-1.299454	5.057151	-0.625241	-0.511131	0.258645	-32.332620	-77.811613	124.853519	39.979534953	116.338915069	50.359753
42049	20373574	12.211003	-1.280084	5.026714	-0.547120	-0.501903	0.263278	-32.737615	-77.852744	125.187606	39.979534918	116.338915073	50.359196
42050	20373599	12.317365	-1.239918	4.955047	-0.458285	-0.490703	0.257067	-33.124792	-77.892525	125.516433	39.979534883	116.338915076	50.358656
42051	20373624	12.371308	-1.169567	4.904831	-0.367461	-0.476872	0.265749	-33.501013	-77.929505	125.847314	39.979534848	116.338915080	50.358137
42052	20373649	12.411499	-1.110212	4.855813	-0.285704	-0.461647	0.269523	-33.864064	-77.963924	126.176658	39.979534813	116.338915084	50.357639
42053	20373674	12.428266	-1.064578	4.784151	-0.207551	-0.439948	0.273639	-34.211940	-77.995009	126.501891	39.979534778	116.338915088	50.360090
42054	20373699	12.464071	-1.035774	4.806884	-0.151180	-0.413947	0.279903	-34.546993	-78.022109	126.822236	39.979534742	116.338915092	50.359635
42055	20373724	12.495805	-0.986267	4.817704	-0.103101	-0.388938	0.286546	-34.870634	-78.045341	127.137925	39.979534707	116.338915095	50.359202
42056	20373749	12.581300	-0.891487	4.853958	-0.066242	-0.372087	0.285131	-35.182855	-78.066348	127.447312	39.979534671	116.338915099	50.358789
42057	20373774	12.579999	-0.803507	4.871539	-0.028737	-0.357662	0.286862	-35.486051	-78.085182	127.752944	39.979534635	116.338915103	50.358400
42058	20373799	12.588350	-0.701805	4.903779	-0.002500	-0.340228	0.289692	-35.781069	-78.101421	128.054039	39.979534599	116.338915106	50.358030
42059	20373824	12.609119	-0.587673	4.933445	0.016911	-0.330663	0.294863	-36.073119	-78.115796	128.354924	39.979534563	116.338915110	50.357682
42060	20373849	12.609227	-0.500993	4.936390	0.037730	-0.327973	0.302501	-36.365997	-78.128898	128.659688	39.979534526	116.338915113	50.357355
42061	20373874	12.544542	-0.411622	4.956594	0.053924	-0.322396	0.308210	-36.658054	-78.140551	128.965969	39.979534490	116.338915116	50.358176
42062	20373899	12.525357	-0.329099	4.974112	0.063674	-0.321668	0.314882	-36.952635	-78.151225	129.276245	39.979534453	116.338915120	50.357892
42063	20373924	12.478521	-0.298889	4.986145	0.072820	-0.324152	0.318912	-37.249660	-78.161506	129.590343	39.979534416	116.338915123	50.357629
42064	20373949	12.433149	-0.234168	4.975717	0.085016	-0.331552	0.328936	-37.553978	-78.171418	129.913667	39.979534379	116.338915126	50.357386
42065	20373974	12.314704	-0.250561	4.948950	0.095353	-0.341544	0.331533	-37.862932	-78.181880	130.243227	39.979534342	116.338915129	50.357160
42066	20373999	12.203164	-0.238013	4.924984	0.103264	-0.346969	0.333981	-38.174923	-78.192373	130.577036	39.979534304	116.338915132	50.356956
42067	20374024	12.095743	-0.210432	4.911727	0.100198	-0.354144	0.325227	-38.486281	-78.204077	130.909736	39.979534267	116.338915135	50.356770
42068	20374049	12.003446	-0.156884	4.930466	0.081073	-0.361049	0.328024	-38.805475	-78.215929	131.247628	39.979534229	116.338915138	50.356601
42069	20374074	11.902986	-0.109896	4.897346	0.061932	-0.365792	0.327373	-39.129776	-78.227981	131.587922	39.979534191	116.338915140	50.350304
42070	20374099	11.848041	-0.089071	4.844169	0.043182	-0.373143	0.330246	-39.462168	-78.240188	131.933722	39.979534153	116.338915143	50.350163
42071	20374124	11.779048	-0.188050	4.830480	0.020468	-0.374772	0.325663	-39.796800	-78.252583	132.278470	39.979534115	116.338915145	50.350039
42072	20374149	11.740461	-0.270406	4.771677	-0.000694	-0.375471	0.312303	-40.128435	-78.265874	132.617045	39.979534077	116.338915148	50.349929
42073	20374174	11.817717	-0.351350	4.697004	-0.019896	-0.376535	0.319256	-40.467697	-78.278235	132.960586	39.979534038	116.338915150	50.349835
42074	20374199	11.927936	-0.507957	4.612752	-0.042982	-0.379820	0.313619	-40.809509	-78.291063	133.303338	39.979533999	116.338915152	50.349758
42075	20374224	12.050457	-0.777297	4.508188	-0.072946	-0.381008	0.316086	-41.158177	-78.303368	133.648692	39.979533961	116.338915155	50.349698
42076	20374249	12.151009	-1.042387	4.363751	-0.126445	-0.378957	0.316985	-41.514752	-78.314936	133.994282	39.979533922	116.338915157	50.349655
42077	20374274	12.266825	-1.238665	4.220876	-0.195698	-0.364965	0.322716	-41.878415	-78.324021	134.336965	39.979533883	116.338915159	50.353686
42078	20374299	12.309534	-1.463909	4.088481	-0.270350	-0.343980	0.333598	-42.249115	-78.329385	134.675906	39.979533843	116.338915161	50.353685
42079	20374324	12.376934	-1.799108	3.945106	-0.348868	-0.318916	0.345719	-42.625793	-78.330481	135.009464	39.979533804	116.338915163	50.353703
42080	20374349	12.427818	-2.073946	3.815264	-0.423774	-0.281265	0.360297	-43.002848	-78.325758	135.332453	39.979533764	116.338915165	50.353741
42081	20374374	12.440110	-2.417324	3.658509	-0.491986	-0.246905	0.372483	-43.379176	-78.315823	135.644731	39.979533725	116.338915167	50.353801
42082	20374399	12.426274	-2.690633	3.519320	-0.547241	-0.204104	0.374520	-43.743369	-78.300835	135.936549	39.979533685	116.338915169	50.353880
42083	20374424	12.412562	-2.925286	3.345653	-0.583169	-0.162703	0.365721	-44.087605	-78.282085	136.202747	39.979533645	116.338915172	50.353979
42084	20374449	12.365977	-3.108825	3.141488	-0.599928	-0.113089	0.353110	-44.403126	-78.259193	136.437186	39.979533606	116.338915174	50.354098
42085	20374474	12.333180	-3.237478	2.945557	-0.586267	-0.066949	0.339544	-44.686676	-78.232704	136.640989	39.979533566	116.338915176	50.358204
42086	20374499	12.256433	-3.287537	2.741883	-0.558169	-0.014833	0.312766	-44.926868	-78.203433	136.804633	39.979533526	116.338915179	50.358366
42087	20374524	12.197968	-3.220453	2.462761	-0.502873	0.032394	0.291802	-45.125145	-78.171378	136.933566	39.979533486	116.338915182	50.358547
42088	20374549	12.197062	-3.204576	2.279314	-0.423096	0.088504	0.273037	-45.274939	-78.135487	137.024653	39.979533446	116.338915184	50.358746
42089	20374574	12.229210	-3.096781	2.162580	-0.323705	0.143403	0.238976	-45.366975	-78.097496	137.071276	39.979533406	116.338915187	50.358962
42090	20374599	12.225848	-2.914364	1.957045	-0.207260	0.172055	0.205573	-45.412215	-78.060018	137.087127	39.979533366	116.338915190	50.359198
42091	20374624	12.228297	-2.653218	1.678582	-0.074153	0.194758	0.173934	-45.412314	-78.023483	137.076326	39.979533326	116.338915193	50.359451
42092	20374649	12.279047	-2.416682	1.353567	0.072677	0.222911	0.143476	-45.363552	-77.987221	137.037074	39.979533286	116.338915196	50.359722
42093	20374674	12.322826	-2.280503	1.005570	0.215694	0.253274	0.116184	-45.267228	-77.950670	136.970132	39.979533246	116.338915199	50.359270
42094	20374699	12.325089	-2.195400	0.698642	0.359535	0.283283	0.086828	-45.122743	-77.914044	136.875000	39.979533206	116.338915202	50.359575
42095	20374724	12.336958	-2.129598	0.398255	0.491479	0.314483	0.055617	-44.930675	-77.877363	136.750520	39.979533166	116.338915205	50.359896
42096	20374749	12.315830	-2.073219	0.057927	0.605805	0.336500	0.015545	-44.693978	-77.842394	136.597125	39.979533126	116.338915209	50.360233
42097	20374774	12.242287	-2.055444	-0.279909	0.696334	0.364153	-0.030498	-44.410813	-77.809082	136.409438	39.979533087	116.338915212	50.360583
42098	20374799	12.185242	-2.010188	-0.596331	0.758831	0.385593	-0.075190	-44.088914	-77.777829	136.191257	39.979533047	116.338915215	50.360950
42099	20374824	12.139306	-1.999201	-0.955419	0.794119	0.416890	-0.115770	-43.729735	-77.747104	135.940076	39.979533008	116.338915218	50.361332
42100	20374849	12.076570	-1.983094	-1.208076	0.820636	0.450952	-0.154789	-43.334240	-77.716342	135.655589	39.979532969	116.338915221	50.361727
42101	20374874	11.978156	-1.909083	-1.485891	0.823960	0.479637	-0.194995	-42.907830	-77.686082	135.339912	39.979532930	116.338915224	50.366883
42102	20374899	11.949809	-1.855999	-1.697246	0.795420	0.510249	-0.236332	-42.453847	-77.656099	134.991793	39.979532891	116.338915228	50.367307
42103	20374924	11.902215	-1.758915	-1.897756	0.761505	0.538579	-0.266083	-41.979856	-77.625373	134.618178	39.979532852	116.338915231	50.367742
42104	20374949	11.794026	-1.620590	-2.086235	0.722833	0.555939	-0.288832	-41.494922	-77.594292	134.227643	39.979532814	116.338915234	50.368189
42105	20374974	11.706422	-1.550984	-2.297559	0.674413	0.575195	-0.312416	-40.999353	-77.562649	133.819069	39.979532776	116.338915237	50.368640
42106	20374999	11.701558	-1.548591	-2.559602	0.609183	0.592950	-0.324567	-40.501967	-77.529455	133.399014	39.979532738	116.338915240	50.369105
42107	20375024	11.638745	-1.533990	-2.780337	0.518467	0.599851	-0.343879	-40.007592	-77.496512	132.968681	39.979532700	116.338915243	50.369578
42108	20375049	11.573194	-1.515210	-3.010446	0.402276	0.608194	-0.358307	-39.521695	-77.463177	132.529929	39.979532663	116.338915246	50.370060
42109	20375074	11.475839	-1.548806	-3.224750	0.251542	0.622887	-0.366546	-39.049779	-77.428166	132.083321	39.979532626	116.338915249	50.371426
42110	20375099	11.414071	-1.615669	-3.362040	0.094612	0.627667	-0.377153	-38.595654	-77.392791	131.631850	39.979532589	116.338915252	50.371922
42111	20375124	11.353606	-1.647024	-3.452619	-0.071348	0.623149	-0.375760	-38.170300	-77.357046	131.185440	39.979532552	116.338915255	50.372424
42112	20375149	11.370126	-1.743154	-3.507488	-0.237657	0.622988	-0.367521	-37.775419	-77.319895	130.745781	39.979532516	116.338915258	50.372931
42113	20375174	11.042888	-2.001803	-2.780206	-0.378308	0.573506	-0.362006	-37.424964	-77.287251	130.330951	39.979532480	116.338915262	50.373441
42114	20375199	11.053185	-2.063811	-2.047571	-0.362448	0.344165	-0.368543	-37.158561	-77.280820	130.004583	39.979532444	116.338915265	50.373959
42115	20375224	11.016165	-2.125326	-2.183360	-0.303109	0.064634	-0.343099	-37.003503	-77.303870	129.801080	39.979532409	116.338915268	50.374482
42116	20375249	11.019706	-2.353535	-2.626873	-0.258458	-0.154644	-0.303367	-36.945537	-77.348507	129.703676	39.979532374	116.338915271	50.375011
42117	20375274	11.093787	-2.578569	-3.168699	-0.227936	-0.306505	-0.240128	-36.973468	-77.405073	129.698797	39.979532339	116.338915274	50.376318
42118	20375299	11.251780	-3.126554	-3.828579	-0.222172	-0.364907	-0.178409	-37.055060	-77.462997	129.749743	39.979532304	116.338915277	50.376858
42119	20375324	11.487086	-3.785527	-4.593833	-0.311524	-0.307876	-0.132868	-37.151310	-77.510454	129.802581	39.979532270	116.338915281	50.377404
42120	20375349	11.772018	-4.497237	-4.867230	-0.476287	-0.151558	-0.098045	-37.228432	-77.537042	129.811651	39.979532236	116.338915284	50.377957
42121	20375374	11.975893	-5.045924	-4.598971	-0.630020	0.031361	-0.098391	-37.255764	-77.542799	129.747177	39.979532202	116.338915288	50.378530
42122	20375399	12.008125	-5.309506	-4.413652	-0.746974	0.194792	-0.113773	-37.227821	-77.531253	129.608936	39.979532169	116.338915292	50.379105
42123	20375424	12.039968	-5.408854	-3.983090	-0.822264	0.328285	-0.116479	-37.157308	-77.504683	129.416040	39.979532136	116.338915297	50.379693
42124	20375449	12.017802	-5.503144	-3.454073	-0.814280	0.416716	-0.125288	-37.047364	-77.468707	129.183901	39.979532104	116.338915301	50.380292
42125	20375474	11.831003	-5.561973	-3.191020	-0.743026	0.476790	-0.122272	-36.906613	-77.425487	128.930621	39.979532072	116.338915306	50.378771
42126	20375499	11.699681	-5.583214	-3.044813	-0.631885	0.524768	-0.111394	-36.738556	-77.375683	128.665629	39.979532040	116.338915311	50.379393
