PacketCounter	SampleTimeFine	Acc_X	Acc_Y	Acc_Z	Gyr_X	Gyr_Y	Gyr_Z	VelInc_X	VelInc_Y	VelInc_Z
09146	14737651	-2.697450	0.093335	9.468620	-0.003552	-0.008516	0.003615	-0.006744	0.000233	0.023671
09147	14737676	-2.685000	0.111296	9.458040	-0.003684	-0.008345	0.010185	-0.006713	0.000278	0.023645
09148	14737701	-2.662898	0.111363	9.439425	-0.004338	-0.008386	0.007617	-0.006657	0.000278	0.023598
09149	14737726	-2.666961	0.129278	9.424852	0.001073	-0.008646	0.003901	-0.006668	0.000323	0.023562
09150	14737751	-2.658778	0.096243	9.428734	0.000213	-0.009046	0.006214	-0.006647	0.000241	0.023572
09151	14737776	-2.649094	0.119609	9.439463	-0.001009	-0.010918	0.007270	-0.006623	0.000299	0.023599
09152	14737801	-2.643547	0.130606	9.435513	0.001596	-0.009722	0.003469	-0.006609	0.000326	0.023589
09153	14737826	-2.669782	0.129262	9.434155	-0.003886	-0.007969	0.002110	-0.006675	0.000323	0.023585
09154	14737851	-2.678090	0.125033	9.458090	-0.003888	-0.009149	-0.000392	-0.006695	0.000313	0.023645
09155	14737876	-2.686400	0.104390	9.468664	-0.002101	-0.010952	0.005133	-0.006716	0.000261	0.023672
09156	14737901	-2.691924	0.101597	9.467313	0.000672	-0.015159	0.003336	-0.006730	0.000254	0.023668
09157	14737926	-2.673994	0.125026	9.462075	-0.001070	-0.015683	0.005393	-0.006685	0.000313	0.023655
09158	14737951	-2.624245	0.112762	9.424826	-0.002566	-0.015031	0.002441	-0.006561	0.000282	0.023562
09159	14737976	-2.644971	0.074263	9.411371	-0.005326	-0.014395	0.006737	-0.006613	0.000186	0.023528
09160	14738001	-2.613206	0.099103	9.396832	-0.004479	-0.014076	0.002865	-0.006533	0.000248	0.023492
09161	14738026	-2.599407	0.107314	9.404862	-0.002156	-0.011051	0.006640	-0.006499	0.000268	0.023512
09162	14738051	-2.592583	0.098994	9.426113	-0.003034	-0.013514	0.002564	-0.006482	0.000248	0.023565
09163	14738076	-2.600885	0.097579	9.434084	-0.002383	-0.008515	-0.000377	-0.006502	0.000244	0.023585
09164	14738101	-2.615972	0.126545	9.423532	-0.003019	-0.009489	-0.002383	-0.006540	0.000316	0.023559
09165	14738126	-2.633930	0.122387	9.426160	-0.007324	-0.011009	0.001211	-0.006585	0.000306	0.023565
09166	14738151	-2.622801	0.154134	9.408975	-0.010492	-0.008649	-0.001691	-0.006557	0.000386	0.023522
09167	14738176	-2.622730	0.151468	9.378366	-0.002821	-0.012158	0.001062	-0.006557	0.000379	0.023446
09168	14738201	-2.661407	0.108724	9.396836	-0.017394	-0.009173	-0.003248	-0.006654	0.000272	0.023492
09169	14738226	-2.657436	0.096155	9.459325	-0.010881	-0.011215	-0.000380	-0.006644	0.000241	0.023648
09170	14738251	-2.709996	0.088979	9.527139	0.006290	-0.012065	-0.000687	-0.006775	0.000222	0.023818
09171	14738276	-2.663077	0.112432	9.508608	-0.010760	-0.011507	-0.002757	-0.006658	0.000281	0.023771
09172	14738301	-2.625731	0.074152	9.441984	-0.022750	-0.015847	0.001159	-0.006565	0.000186	0.023605
09173	14738326	-2.664361	0.006880	9.403151	-0.016186	-0.012366	-0.001299	-0.006661	0.000018	0.023508
09174	14738351	-2.665649	0.055045	9.405969	-0.003242	-0.011837	-0.002949	-0.006664	0.000138	0.023515
09175	14738376	-2.675273	0.118243	9.435447	-0.004941	-0.020058	-0.004083	-0.006689	0.000296	0.023588
09176	14738401	-2.665606	0.184174	9.462281	-0.014296	-0.017552	-0.006098	-0.006665	0.000461	0.023656
09177	14738426	-2.591066	0.170626	9.415719	-0.018251	-0.020017	-0.006871	-0.006478	0.000427	0.023539
09178	14738451	-2.495981	0.130762	9.389024	-0.021827	-0.017716	0.002173	-0.006240	0.000328	0.023472
09179	14738476	-2.554297	-0.080030	9.440185	-0.033477	-0.021948	0.021477	-0.006386	-0.000199	0.023600
09180	14738501	-2.675466	0.035539	9.469775	-0.033736	-0.023682	0.023849	-0.006689	0.000090	0.023674
09181	14738526	-2.695966	0.104464	9.432727	-0.038053	-0.024949	0.027259	-0.006741	0.000262	0.023582
09182	14738551	-2.676578	0.206227	9.461020	-0.044489	-0.026542	0.025709	-0.006692	0.000517	0.023652
09183	14738576	-2.701280	0.195468	9.402419	-0.036831	-0.029331	0.013694	-0.006754	0.000490	0.023506
09184	14738601	-2.709452	0.257342	9.410616	-0.034453	-0.023828	0.006637	-0.006774	0.000644	0.023526
09185	14738626	-2.737127	0.264120	9.443881	-0.029632	-0.028971	-0.002396	-0.006844	0.000661	0.023609
09186	14738651	-2.721976	0.247599	9.446495	-0.042216	-0.031082	-0.005619	-0.006806	0.000620	0.023616
09187	14738676	-2.721970	0.257225	9.449185	-0.036864	-0.031997	-0.003135	-0.006806	0.000644	0.023623
09188	14738701	-2.679354	0.206247	9.454354	-0.036439	-0.036985	-0.007445	-0.006699	0.000517	0.023636
09189	14738726	-2.675284	0.175943	9.464905	-0.039834	-0.032176	-0.002970	-0.006689	0.000441	0.023662
09190	14738751	-2.678238	0.084979	9.493883	-0.035268	-0.034827	-0.006498	-0.006697	0.000214	0.023734
09191	14738776	-2.678407	0.000945	9.513565	-0.033413	-0.038046	-0.010364	-0.006697	0.000003	0.023784
09192	14738801	-2.659172	-0.025223	9.514816	-0.027996	-0.033082	-0.003253	-0.006649	-0.000062	0.023787
09193	14738826	-2.635637	-0.025137	9.489559	-0.031964	-0.032441	0.000723	-0.006590	-0.000062	0.023724
09194	14738851	-2.664545	-0.000264	9.476316	-0.031000	-0.033942	0.005861	-0.006662	0.000000	0.023691
09195	14738876	-2.638289	0.016276	9.464401	-0.031170	-0.034031	0.008112	-0.006597	0.000042	0.023661
09196	14738901	-2.599557	0.050825	9.419293	-0.022483	-0.032745	0.006242	-0.006500	0.000128	0.023548
09197	14738926	-2.537271	0.114381	9.354351	-0.027062	-0.026245	0.001888	-0.006344	0.000287	0.023386
09198	14738951	-2.502687	0.150299	9.322562	-0.028855	-0.027455	0.004630	-0.006258	0.000377	0.023306
09199	14738976	-2.487543	0.151598	9.334536	-0.030127	-0.023744	0.003742	-0.006220	0.000380	0.023336
09200	14739001	-2.487649	0.118510	9.359717	-0.025302	-0.019784	-0.001107	-0.006220	0.000297	0.023399
09201	14739026	-2.518120	0.075670	9.399469	-0.023279	-0.013007	-0.003348	-0.006296	0.000190	0.023499
09202	14739051	-2.525128	0.046650	9.429970	-0.028034	-0.007993	-0.002013	-0.006313	0.000117	0.023575
09203	14739076	-2.556824	0.076904	9.439366	-0.027907	-0.008138	-0.002705	-0.006392	0.000193	0.023598
09204	14739101	-2.584393	0.072829	9.434008	-0.025314	-0.006498	0.001255	-0.006461	0.000183	0.023585
09205	14739126	-2.657421	0.078306	9.444639	-0.022089	-0.001931	-0.004792	-0.006644	0.000196	0.023612
09206	14739151	-2.663087	0.067128	9.489834	-0.019729	-0.003113	0.000918	-0.006658	0.000168	0.023725
09207	14739176	-2.681062	0.058788	9.513757	-0.021863	-0.007713	0.000967	-0.006703	0.000148	0.023784
09208	14739201	-2.710068	0.050433	9.528335	-0.022955	-0.009044	-0.003235	-0.006775	0.000127	0.023821
09209	14739226	-2.677017	0.017439	9.520260	-0.021994	-0.011556	0.001346	-0.006693	0.000044	0.023801
09210	14739251	-2.660466	0.033966	9.518995	-0.021817	-0.012970	0.003664	-0.006652	0.000086	0.023797
09211	14739276	-2.663098	0.034121	9.481753	-0.023915	-0.016251	0.003776	-0.006658	0.000086	0.023704
09212	14739301	-2.647945	0.027261	9.463096	-0.014482	-0.008807	0.004281	-0.006620	0.000069	0.023658
09213	14739326	-2.609135	0.089344	9.434059	-0.014006	-0.011460	0.003915	-0.006523	0.000224	0.023585
09214	14739351	-2.616098	0.086507	9.451338	-0.014329	-0.012913	-0.000218	-0.006541	0.000217	0.023628
09215	14739376	-2.607785	0.116810	9.446125	-0.013103	-0.011703	0.004548	-0.006520	0.000292	0.023615
09216	14739401	-2.621557	0.114095	9.434132	-0.013638	-0.013457	0.005420	-0.006554	0.000286	0.023585
09217	14739426	-2.631190	0.103081	9.439414	-0.016578	-0.009851	0.001639	-0.006578	0.000258	0.023598
09218	14739451	-2.614582	0.126527	9.419542	-0.017972	-0.011599	-0.001374	-0.006537	0.000317	0.023549
09219	14739476	-2.605013	0.107235	9.439442	-0.015876	-0.013310	0.002648	-0.006513	0.000269	0.023598
09220	14739501	-2.605003	0.111338	9.436787	-0.018802	-0.014180	-0.000627	-0.006513	0.000279	0.023592
09221	14739526	-2.631236	0.092050	9.439367	-0.017738	-0.015576	0.002699	-0.006579	0.000231	0.023598
09222	14739551	-2.625801	0.063096	9.459232	-0.016490	-0.015536	-0.006489	-0.006565	0.000158	0.023648
09223	14739576	-2.621482	0.134762	9.427538	-0.019038	-0.014265	0.001687	-0.006554	0.000337	0.023569
09224	14739601	-2.642290	0.101624	9.455370	-0.025789	-0.011230	0.001566	-0.006606	0.000255	0.023638
09225	14739626	-2.685204	0.040909	9.503048	-0.021271	-0.017330	-0.000271	-0.006714	0.000103	0.023757
09226	14739651	-2.667324	0.029841	9.512338	-0.019583	-0.022189	-0.004509	-0.006669	0.000075	0.023781
09227	14739676	-2.652179	0.040860	9.515035	-0.024402	-0.021113	0.003275	-0.006631	0.000103	0.023787
09228	14739701	-2.629940	0.050695	9.456536	-0.025469	-0.020292	-0.000551	-0.006575	0.000127	0.023641
09229	14739726	-2.623002	0.068635	9.441968	-0.027761	-0.021830	0.001749	-0.006558	0.000172	0.023605
09230	14739751	-2.618829	0.079660	9.438019	-0.024547	-0.020874	0.002462	-0.006548	0.000200	0.023595
09233	14739776	-2.633996	0.083760	9.451333	-0.023277	-0.025515	0.008421	-0.006586	0.000210	0.023628
09234	14739801	-2.625747	0.090687	9.446022	-0.028019	-0.027065	0.005817	-0.006565	0.000227	0.023615
09235	14739826	-2.649174	0.100273	9.455355	-0.030339	-0.026368	0.002171	-0.006624	0.000252	0.023638
09236	14739851	-2.642254	0.125030	9.454115	-0.026861	-0.026381	0.001571	-0.006606	0.000313	0.023635
09237	14739876	-2.682115	0.170535	9.438270	-0.031459	-0.028199	0.000595	-0.006706	0.000427	0.023595
09238	14739901	-2.681999	0.264066	9.453216	-0.034341	-0.031272	0.005206	-0.006706	0.000661	0.023633
09239	14739926	-2.701531	0.201990	9.498233	-0.032274	-0.031190	0.002719	-0.006755	0.000506	0.023745
09240	14739951	-2.707186	0.155047	9.535339	-0.022300	-0.032873	-0.003208	-0.006769	0.000388	0.023838
09241	14739976	-2.670206	0.018686	9.548219	-0.019337	-0.030863	-0.007689	-0.006676	0.000047	0.023870
09242	14740001	-2.645585	-0.149161	9.530381	-0.029552	-0.029780	-0.000076	-0.006615	-0.000372	0.023826
09243	14740026	-2.622165	-0.195806	9.494313	-0.021012	-0.029613	0.007313	-0.006556	-0.000489	0.023736
09244	14740051	-2.652291	-0.133781	9.471897	-0.011122	-0.025021	0.011390	-0.006631	-0.000334	0.023680
09245	14740076	-2.645337	-0.041644	9.496144	-0.000775	-0.028241	0.015798	-0.006614	-0.000104	0.023740
09246	14740101	-2.648009	0.050510	9.505757	-0.007069	-0.029421	0.016557	-0.006621	0.000126	0.023764
09247	14740126	-2.632740	0.115153	9.520633	-0.001004	-0.031142	0.011796	-0.006583	0.000288	0.023801
09248	14740151	-2.616113	0.146927	9.488801	-0.006722	-0.033529	0.011998	-0.006541	0.000367	0.023722
09249	14740176	-2.576059	0.111332	9.434156	-0.011761	-0.032221	0.010645	-0.006441	0.000279	0.023585
09250	14740201	-2.552621	0.066058	9.398083	-0.016324	-0.028951	0.009231	-0.006382	0.000166	0.023495
09251	14740226	-2.562372	0.015049	9.419203	-0.012305	-0.031517	0.015022	-0.006407	0.000038	0.023548
09252	14740251	-2.563755	0.010890	9.423186	-0.003117	-0.028497	0.015278	-0.006410	0.000027	0.023558
09253	14740276	-2.539058	-0.013953	9.444404	-0.005990	-0.028211	0.013006	-0.006348	-0.000035	0.023611
09254	14740301	-2.569354	0.039626	9.463185	-0.000964	-0.022101	0.012971	-0.006424	0.000099	0.023658
09255	14740326	-2.568028	0.050542	9.492495	-0.006956	-0.022772	0.013679	-0.006421	0.000126	0.023731
09256	14740351	-2.576073	0.101666	9.440777	-0.000155	-0.021407	0.013041	-0.006441	0.000254	0.023602
09257	14740376	-2.584286	0.136128	9.430231	-0.007050	-0.023945	0.015432	-0.006461	0.000340	0.023575
09258	14740401	-2.617339	0.111442	9.412840	-0.006747	-0.024363	0.013116	-0.006544	0.000279	0.023532
09259	14740426	-2.629845	0.092066	9.440710	-0.004479	-0.020207	0.012757	-0.006575	0.000230	0.023602
09260	14740451	-2.631338	0.082258	9.479256	-0.009000	-0.025427	0.013538	-0.006579	0.000206	0.023698
09261	14740476	-2.605099	0.107057	9.472702	-0.008619	-0.026530	0.011541	-0.006514	0.000268	0.023682
09262	14740501	-2.605036	0.145598	9.471504	-0.013466	-0.026156	0.014757	-0.006513	0.000364	0.023679
09263	14740526	-2.580166	0.149861	9.440923	-0.014342	-0.027041	0.014563	-0.006451	0.000375	0.023602
09264	14740551	-2.574663	0.099003	9.422141	-0.018203	-0.023247	0.014716	-0.006437	0.000248	0.023555
09265	14740576	-2.566366	0.093570	9.406156	-0.015859	-0.023760	0.014360	-0.006417	0.000234	0.023515
09266	14740601	-2.549761	0.105970	9.392910	-0.011747	-0.021732	0.011265	-0.006375	0.000265	0.023482
09267	14740626	-2.516605	0.130833	9.365047	-0.018008	-0.024134	0.014347	-0.006292	0.000327	0.023412
09268	14740651	-2.473842	0.137724	9.365106	-0.028253	-0.017700	0.013012	-0.006185	0.000345	0.023413
09269	14740676	-2.472413	0.137808	9.339834	-0.029032	-0.021785	0.010069	-0.006182	0.000345	0.023349
09270	14740701	-2.464192	0.096509	9.341028	-0.032976	-0.016861	0.010033	-0.006161	0.000242	0.023352
09271	14740726	-2.412787	0.249612	9.257736	-0.036792	-0.010748	0.012757	-0.006032	0.000625	0.023144
09272	14740751	-2.319099	0.158894	9.224237	-0.047401	-0.007471	0.007418	-0.005798	0.000399	0.023061
09273	14740776	-2.392109	0.154891	9.202875	-0.049528	-0.007021	0.004016	-0.005980	0.000389	0.023007
09274	14740801	-2.355014	0.109324	9.229378	-0.040889	0.004545	0.001509	-0.005887	0.000274	0.023073
09275	14740826	-2.395131	0.113248	9.287906	-0.053573	0.006314	0.000469	-0.005988	0.000285	0.023220
09276	14740851	-2.419966	0.172228	9.342646	-0.052828	0.009789	0.004977	-0.006050	0.000432	0.023357
09277	14740876	-2.373033	0.234159	9.336211	-0.053097	0.014675	-0.001347	-0.005932	0.000587	0.023341
09278	14740901	-2.319146	0.239850	9.284365	-0.064005	0.023068	-0.002688	-0.005797	0.000602	0.023211
09279	14740926	-2.453011	0.135220	9.302576	-0.076270	0.034732	-0.007930	-0.006132	0.000340	0.023257
09280	14740951	-2.679250	0.093734	9.358199	-0.069934	0.035891	-0.005080	-0.006697	0.000236	0.023396
09281	14740976	-2.661484	0.077058	9.404711	-0.076684	0.027765	-0.004624	-0.006653	0.000195	0.023512
09282	14741001	-2.523659	-0.020516	9.360576	-0.079040	0.025876	-0.009075	-0.006308	-0.000049	0.023402
09283	14741026	-2.504157	0.069181	9.311632	-0.069267	0.025414	-0.013629	-0.006260	0.000175	0.023279
09284	14741051	-2.496096	0.059147	9.398102	-0.061119	0.032145	-0.002497	-0.006239	0.000150	0.023495
09285	14741076	-2.639862	-0.015631	9.524175	-0.064652	0.027709	-0.011472	-0.006599	-0.000037	0.023811
09286	14741101	-2.586244	-0.069460	9.554640	-0.065397	0.030346	-0.004411	-0.006465	-0.000172	0.023887
09287	14741126	-2.552787	-0.107279	9.366911	-0.076897	0.032383	-0.004311	-0.006381	-0.000266	0.023418
09288	14741151	-2.460510	-0.191152	9.356053	-0.064227	0.035286	-0.003710	-0.006150	-0.000476	0.023390
09289	14741176	-2.518227	-0.136016	9.318937	-0.054336	0.034453	0.004563	-0.006295	-0.000338	0.023298
09290	14741201	-2.599635	0.008099	9.441780	-0.052004	0.033489	-0.000362	-0.006498	0.000022	0.023605
09291	14741226	-2.656271	0.086194	9.531152	-0.053082	0.028753	0.003758	-0.006640	0.000217	0.023828
09292	14741251	-2.623239	0.083391	9.551110	-0.056706	0.030167	-0.003152	-0.006557	0.000210	0.023878
09293	14741276	-2.539152	0.016102	9.499045	-0.061721	0.031662	-0.001189	-0.006347	0.000042	0.023748
09294	14741301	-2.497643	-0.019328	9.413811	-0.061616	0.036921	0.000001	-0.006243	-0.000047	0.023535
09295	14741326	-2.530637	-0.022012	9.392494	-0.057514	0.037295	0.000532	-0.006325	-0.000053	0.023482
09296	14741351	-2.611887	0.022120	9.377954	-0.053027	0.036030	-0.002816	-0.006529	0.000057	0.023445
09297	14741376	-2.593002	-0.034850	9.516157	-0.044937	0.033894	-0.002125	-0.006481	-0.000086	0.023791
09298	14741401	-2.536585	-0.095473	9.523972	-0.037192	0.033753	-0.006439	-0.006340	-0.000238	0.023810
09299	14741426	-2.503311	-0.085532	9.440196	-0.040664	0.032875	-0.006466	-0.006257	-0.000213	0.023601
09300	14741451	-2.666119	-0.039026	9.533394	-0.041105	0.045769	0.003150	-0.006664	-0.000096	0.023834
09301	14741476	-2.888248	-0.016046	9.659753	-0.044768	0.041775	0.002551	-0.007219	-0.000039	0.024150
09302	14741501	-2.891052	0.014132	9.678476	-0.036550	0.023641	0.002003	-0.007227	0.000036	0.024196
09303	14741526	-2.722629	-0.000613	9.562767	-0.042263	0.019144	-0.000283	-0.006806	-0.000000	0.023907
09304	14741551	-2.635627	-0.008595	9.496269	-0.042257	0.026032	0.000405	-0.006588	-0.000020	0.023741
09305	14741576	-2.661794	-0.020928	9.470927	-0.037013	0.023133	0.000760	-0.006654	-0.000051	0.023678
09306	14741601	-2.679774	-0.001816	9.516222	-0.039375	0.021239	0.008690	-0.006699	-0.000003	0.023791
09307	14741626	-2.671474	-0.003083	9.497589	-0.035343	0.019567	0.011101	-0.006678	-0.000007	0.023744
09308	14741651	-2.631443	0.016164	9.483035	-0.028370	0.016072	0.005968	-0.006578	0.000041	0.023708
09309	14741676	-2.584499	0.013540	9.455112	-0.035894	0.015663	-0.000350	-0.006461	0.000035	0.023638
09310	14741701	-2.594237	0.016218	9.479053	-0.034645	0.019991	-0.002217	-0.006485	0.000042	0.023698
09311	14741726	-2.630093	-0.003133	9.490966	-0.033672	0.018263	0.004423	-0.006575	-0.000007	0.023728
09312	14741751	-2.661874	-0.003158	9.516228	-0.035168	0.014187	0.006101	-0.006654	-0.000007	0.023791
09313	14741776	-2.607949	0.014893	9.459092	-0.037706	0.016282	0.002515	-0.006519	0.000038	0.023648
09314	14741801	-2.592567	0.061965	9.390063	-0.035794	0.013500	0.006351	-0.006481	0.000156	0.023475
09315	14741826	-2.570522	0.053676	9.396710	-0.037853	0.018793	0.005518	-0.006426	0.000135	0.023492
09316	14741851	-2.600918	0.037105	9.413933	-0.037339	0.015548	-0.000046	-0.006502	0.000094	0.023535
09317	14741876	-2.605068	0.052162	9.431277	-0.037275	0.017695	0.003833	-0.006512	0.000131	0.023578
09318	14741901	-2.516868	0.082397	9.447396	-0.036110	0.014301	0.000907	-0.006292	0.000207	0.023619
09319	14741926	-2.640854	0.068772	9.414009	-0.043973	0.025176	-0.002235	-0.006601	0.000173	0.023535
09320	14741951	-2.601421	-0.118860	9.529182	-0.039482	0.012106	-0.006381	-0.006503	-0.000296	0.023823
09321	14741976	-2.619137	-0.092442	9.458731	-0.035942	0.017324	-0.003356	-0.006547	-0.000230	0.023647
09322	14742001	-2.598434	-0.055331	9.465520	-0.032336	0.018103	-0.001638	-0.006496	-0.000137	0.023664
09323	14742026	-2.598295	0.008042	9.452432	-0.037843	0.016901	0.009710	-0.006495	0.000021	0.023631
09324	14742051	-2.591324	0.048043	9.436589	-0.044963	0.017701	0.007775	-0.006478	0.000121	0.023592
09325	14742076	-2.627186	0.056216	9.456553	-0.041376	0.022040	-0.000711	-0.006567	0.000142	0.023642
09326	14742101	-2.599667	0.045166	9.463192	-0.038178	0.017010	0.000823	-0.006499	0.000114	0.023658
09327	14742126	-2.544530	-0.024938	9.437717	-0.037690	0.014305	0.001206	-0.006361	-0.000061	0.023594
09328	14742151	-2.500435	-0.056495	9.407031	-0.045200	0.019981	-0.000232	-0.006251	-0.000140	0.023518
09329	14742176	-2.523675	-0.013640	9.359257	-0.046332	0.024696	0.002882	-0.006308	-0.000033	0.023398
09330	14742201	-2.552727	0.031537	9.428574	-0.036852	0.028045	-0.000174	-0.006381	0.000080	0.023572
09332	14742226	-2.522622	-0.058109	9.465559	-0.034297	0.027134	-0.005662	-0.006306	-0.000144	0.023664
09334	14742251	-2.584473	-0.013810	9.408439	-0.033991	0.032721	-0.003412	-0.006460	-0.000033	0.023521
09335	14742276	-2.746069	-0.019806	9.549378	-0.036828	0.038387	-0.000192	-0.006864	-0.000048	0.023874
09336	14742301	-2.776457	0.033600	9.617394	-0.035138	0.026396	-0.003551	-0.006940	0.000085	0.024044
09337	14742326	-2.711408	0.039507	9.507017	-0.043300	0.023948	-0.007802	-0.006778	0.000100	0.023768
09338	14742351	-2.659096	-0.037474	9.480180	-0.045279	0.022282	-0.005622	-0.006647	-0.000092	0.023701
09339	14742376	-2.652176	-0.048397	9.458861	-0.040404	0.023329	-0.002833	-0.006630	-0.000120	0.023647
09340	14742401	-2.636881	-0.029008	9.426999	-0.032322	0.021327	-0.001390	-0.006592	-0.000072	0.023568
09341	14742426	-2.627303	-0.029138	9.457611	-0.035226	0.016305	0.004350	-0.006568	-0.000072	0.023644
09342	14742451	-2.606520	-0.004233	9.425767	-0.034373	0.015919	-0.000398	-0.006516	-0.000010	0.023565
09343	14742476	-2.595504	-0.024879	9.412409	-0.030991	0.015859	-0.003439	-0.006488	-0.000061	0.023531
09344	14742501	-2.612150	-0.019501	9.460309	-0.035068	0.020695	-0.005603	-0.006530	-0.000048	0.023651
09345	14742526	-2.599668	-0.019398	9.424388	-0.031306	0.020167	-0.002755	-0.006499	-0.000048	0.023561
09346	14742551	-2.572067	-0.026212	9.409744	-0.037964	0.019890	-0.004932	-0.006430	-0.000064	0.023525
09347	14742576	-2.614737	-0.021984	9.388454	-0.036493	0.022924	-0.004363	-0.006536	-0.000054	0.023471
09348	14742601	-2.654879	-0.019507	9.464284	-0.030471	0.019003	-0.004190	-0.006637	-0.000048	0.023661
09349	14742626	-2.688054	-0.019635	9.498849	-0.032216	0.016902	-0.005454	-0.006720	-0.000048	0.023747
09350	14742651	-2.646691	-0.026506	9.490867	-0.035590	0.017129	-0.007419	-0.006616	-0.000065	0.023727
09351	14742676	-2.606709	-0.045730	9.477525	-0.041731	0.012244	-0.009651	-0.006516	-0.000113	0.023694
09352	14742701	-2.606478	-0.004168	9.405808	-0.041714	0.014964	-0.009277	-0.006516	-0.000009	0.023515
09353	14742726	-2.665922	-0.036001	9.458898	-0.040260	0.014348	-0.003827	-0.006664	-0.000089	0.023647
09354	14742751	-2.695096	-0.103660	9.511876	-0.036363	0.012664	-0.010237	-0.006737	-0.000258	0.023780
09355	14742776	-2.627363	-0.052558	9.462849	-0.033872	0.007302	-0.010212	-0.006568	-0.000130	0.023657
09356	14742801	-2.563875	-0.071649	9.414923	-0.041071	0.008062	-0.006825	-0.006409	-0.000178	0.023537
09357	14742826	-2.533431	-0.046797	9.391089	-0.038050	0.008231	-0.007989	-0.006333	-0.000116	0.023478
09358	14742851	-2.496150	-0.056294	9.353816	-0.039184	0.016607	-0.005187	-0.006240	-0.000140	0.023385
09359	14742876	-2.538793	-0.053433	9.323200	-0.036941	0.015287	-0.004484	-0.006347	-0.000132	0.023308
09360	14742901	-2.685171	-0.057886	9.425544	-0.033805	0.020756	-0.005157	-0.006712	-0.000144	0.023564
09361	14742926	-2.712957	-0.029444	9.546714	-0.033382	0.012338	-0.010717	-0.006782	-0.000073	0.023867
09362	14742951	-2.639766	-0.008642	9.490934	-0.038351	0.009678	-0.011814	-0.006599	-0.000020	0.023727
09363	14742976	-2.598412	-0.011316	9.477645	-0.047536	0.012667	-0.007319	-0.006496	-0.000027	0.023694
09364	14743001	-2.541542	0.042734	9.372733	-0.043328	0.012688	-0.009848	-0.006353	0.000108	0.023432
09365	14743026	-2.598125	-0.031508	9.356495	-0.047542	0.015356	-0.008950	-0.006495	-0.000077	0.023391
09366	14743051	-2.671119	-0.012191	9.351196	-0.037819	0.013466	-0.007498	-0.006677	-0.000029	0.023378
09367	14743076	-2.630288	-0.154447	9.471834	-0.032976	0.014311	-0.009774	-0.006575	-0.000385	0.023680
09368	14743101	-2.606622	-0.057963	9.437571	-0.032127	0.005424	-0.009194	-0.006516	-0.000144	0.023594
09369	14743126	-2.551504	-0.066253	9.432250	-0.043598	0.015907	-0.005849	-0.006378	-0.000164	0.023581
09370	14743151	-2.609430	-0.088305	9.449455	-0.045413	0.017582	-0.007620	-0.006523	-0.000219	0.023624
09371	14743176	-2.609505	-0.104818	9.449382	-0.042064	0.019848	-0.003843	-0.006523	-0.000261	0.023624
09372	14743201	-2.599665	-0.082620	9.400239	-0.036436	0.014493	-0.006546	-0.006499	-0.000205	0.023501
09373	14743226	-2.605174	-0.108660	9.376193	-0.042096	0.012615	-0.006151	-0.006513	-0.000270	0.023441
09374	14743251	-2.631456	-0.079884	9.422838	-0.033507	0.010210	-0.005707	-0.006578	-0.000199	0.023557
09375	14743276	-2.645193	-0.062007	9.416238	-0.028972	0.014603	-0.006865	-0.006613	-0.000154	0.023541
09376	14743301	-2.636990	-0.052514	9.452204	-0.034334	0.012425	-0.009595	-0.006592	-0.000130	0.023631
09377	14743326	-2.594286	-0.106105	9.428091	-0.028756	0.016828	-0.013931	-0.006485	-0.000264	0.023570
09378	14743351	-2.620135	0.034486	9.381983	-0.031835	0.021170	-0.003013	-0.006550	0.000087	0.023455
09379	14743376	-2.618016	-0.193118	9.510299	-0.030683	0.015308	-0.006689	-0.006545	-0.000482	0.023776
09380	14743401	-2.639871	-0.103523	9.469333	-0.028335	0.016178	-0.010991	-0.006599	-0.000258	0.023673
09381	14743426	-2.519658	-0.108618	9.348293	-0.034635	0.018610	-0.002089	-0.006299	-0.000271	0.023371
09382	14743451	-2.504148	-0.050396	9.252706	-0.048302	0.022882	-0.000510	-0.006260	-0.000125	0.023132
09383	14743476	-2.465386	-0.128426	9.130060	-0.050777	0.024587	0.003663	-0.006163	-0.000320	0.022825
09384	14743501	-2.419747	-0.122714	9.079549	-0.044918	0.026305	0.004835	-0.006049	-0.000306	0.022699
09385	14743526	-2.422555	-0.118662	9.099513	-0.045732	0.029452	0.004266	-0.006056	-0.000295	0.022749
09386	14743551	-2.457265	-0.099814	9.208665	-0.044547	0.031874	0.005710	-0.006142	-0.000248	0.023022
09387	14743576	-2.436785	-0.074043	9.305883	-0.051221	0.031559	0.001216	-0.006091	-0.000184	0.023265
09388	14743601	-2.360969	-0.056199	9.308653	-0.062090	0.033219	0.005138	-0.005901	-0.000139	0.023272
09389	14743626	-2.277984	-0.051633	9.191627	-0.077084	0.048372	0.000194	-0.005694	-0.000127	0.022979
09390	14743651	-2.385166	0.054680	9.120062	-0.087249	0.060894	0.005165	-0.005961	0.000139	0.022801
09391	14743676	-2.511008	-0.068182	9.226040	-0.085716	0.064768	-0.000466	-0.006276	-0.000168	0.023066
09392	14743701	-2.582647	0.055472	9.278277	-0.086243	0.067449	-0.006668	-0.006455	0.000141	0.023196
09393	14743726	-2.533099	0.053974	9.308913	-0.100595	0.067289	-0.006153	-0.006331	0.000138	0.023273
09394	14743751	-2.489074	0.016745	9.324777	-0.119884	0.064062	-0.004360	-0.006221	0.000045	0.023312
09395	14743776	-2.497201	0.045872	9.268988	-0.119263	0.074396	-0.021258	-0.006241	0.000118	0.023173
09396	14743801	-2.567721	0.037237	9.370048	-0.116542	0.079283	-0.027128	-0.006417	0.000097	0.023426
09397	14743826	-2.569095	0.068864	9.383452	-0.123070	0.079343	-0.036001	-0.006420	0.000176	0.023459
09398	14743851	-2.668091	0.246388	9.390644	-0.133526	0.082631	-0.032146	-0.006668	0.000620	0.023477
09399	14743876	-2.714321	0.007670	9.552150	-0.136520	0.074610	-0.036421	-0.006784	0.000024	0.023881
09400	14743901	-2.798360	0.043504	9.552224	-0.130205	0.071630	-0.036561	-0.006994	0.000113	0.023881
09401	14743926	-2.728152	-0.039068	9.530695	-0.134790	0.069185	-0.044037	-0.006818	-0.000093	0.023827
09402	14743951	-2.768136	-0.069299	9.533242	-0.132839	0.071371	-0.041148	-0.006918	-0.000169	0.023834
09403	14743976	-2.761490	-0.174086	9.574133	-0.123729	0.068170	-0.047144	-0.006902	-0.000431	0.023936
09404	14744001	-2.816285	-0.056747	9.494653	-0.114213	0.064704	-0.057895	-0.007039	-0.000138	0.023737
09405	14744026	-2.815260	-0.164483	9.582129	-0.115938	0.067130	-0.048460	-0.007036	-0.000407	0.023956
09406	14744051	-2.863815	-0.203367	9.687075	-0.107829	0.061524	-0.058843	-0.007158	-0.000505	0.024218
09407	14744076	-2.808461	-0.209917	9.588626	-0.098740	0.054762	-0.058827	-0.007020	-0.000521	0.023972
09408	14744101	-2.790293	-0.131291	9.543664	-0.100043	0.055017	-0.062715	-0.006974	-0.000325	0.023860
09409	14744126	-2.786333	-0.208437	9.556711	-0.095826	0.049146	-0.054608	-0.006964	-0.000518	0.023892
09410	14744151	-2.755960	-0.189110	9.547476	-0.099726	0.045669	-0.051378	-0.006889	-0.000469	0.023869
09411	14744176	-2.772085	-0.033291	9.470807	-0.093208	0.042331	-0.050323	-0.006929	-0.000080	0.023677
09412	14744201	-2.860748	-0.114979	9.606216	-0.095408	0.043628	-0.040086	-0.007151	-0.000284	0.024016
09413	14744226	-2.895647	-0.268171	9.712137	-0.092609	0.034048	-0.042935	-0.007238	-0.000667	0.024281
09414	14744251	-2.855401	-0.275933	9.583069	-0.082281	0.025159	-0.049412	-0.007138	-0.000687	0.023958
09415	14744276	-2.851296	-0.281472	9.591035	-0.072519	0.025305	-0.047335	-0.007128	-0.000701	0.023978
09416	14744301	-2.860946	-0.258108	9.603063	-0.060381	0.023627	-0.044674	-0.007152	-0.000643	0.024008
09417	14744326	-2.873221	-0.154941	9.615386	-0.058372	0.021753	-0.043279	-0.007182	-0.000385	0.024039
09418	14744351	-2.804365	-0.216882	9.604577	-0.066316	0.014301	-0.032571	-0.007011	-0.000540	0.024012
09419	14744376	-2.780485	-0.076083	9.499936	-0.081722	0.010277	-0.028870	-0.006951	-0.000188	0.023750
09420	14744401	-2.743589	-0.204254	9.550094	-0.079860	0.009857	-0.019594	-0.006859	-0.000508	0.023875
09421	14744426	-2.823509	-0.149278	9.579505	-0.073428	0.010984	-0.027370	-0.007058	-0.000371	0.023949
09422	14744451	-2.706170	-0.140842	9.510416	-0.065795	0.001866	-0.024854	-0.006765	-0.000350	0.023776
09423	14744476	-2.632895	-0.097925	9.449400	-0.074606	0.005959	-0.018542	-0.006582	-0.000242	0.023624
09424	14744501	-2.608005	-0.082646	9.413536	-0.069711	0.010128	-0.021946	-0.006520	-0.000204	0.023534
09425	14744526	-2.630065	-0.075798	9.420200	-0.065170	0.012171	-0.020038	-0.006575	-0.000187	0.023551
09426	14744551	-2.580504	-0.125369	9.424059	-0.071178	0.011805	-0.019895	-0.006451	-0.000311	0.023560
09427	14744576	-2.591479	-0.141787	9.396049	-0.066011	0.012019	-0.021856	-0.006478	-0.000352	0.023490
09428	14744601	-2.573562	-0.126651	9.400109	-0.070284	0.013979	-0.022078	-0.006434	-0.000314	0.023500
09429	14744626	-2.561069	-0.118282	9.373526	-0.071397	0.013971	-0.018708	-0.006402	-0.000293	0.023434
09430	14744651	-2.599717	-0.082632	9.408213	-0.077708	0.015427	-0.014819	-0.006499	-0.000204	0.023521
09431	14744676	-2.646910	-0.206728	9.470313	-0.070065	0.020038	-0.021835	-0.006617	-0.000515	0.023676
09432	14744701	-2.659377	-0.142280	9.539712	-0.062250	0.025189	-0.030662	-0.006648	-0.000354	0.023850
09433	14744726	-2.716987	-0.242166	9.375703	-0.055575	0.009200	-0.027035	-0.006792	-0.000604	0.023439
09436	14744751	-2.756677	-0.218387	9.266637	-0.060195	-0.000709	-0.022933	-0.006892	-0.000544	0.023167
09437	14744776	-2.651134	-0.248064	9.486143	-0.063373	-0.007311	-0.018384	-0.006628	-0.000618	0.023715
09438	14744801	-2.682942	-0.219375	9.535441	-0.063515	-0.002593	-0.019456	-0.006707	-0.000546	0.023839
09439	14744826	-2.669247	-0.227861	9.584660	-0.075056	0.000575	-0.015725	-0.006673	-0.000567	0.023962
09440	14744851	-2.701001	-0.295156	9.557803	-0.078967	-0.005531	-0.018945	-0.006753	-0.000735	0.023895
09441	14744876	-2.717268	-0.405992	9.389777	-0.074852	-0.013357	-0.010087	-0.006794	-0.001013	0.023474
09442	14744901	-2.663295	-0.379576	9.315385	-0.067474	-0.028108	-0.004570	-0.006659	-0.000947	0.023288
09443	14744926	-2.663183	-0.299740	9.318324	-0.051476	-0.043975	-0.000677	-0.006659	-0.000748	0.023295
09444	14744951	-2.598224	-0.105754	9.325621	-0.045766	-0.034255	-0.016777	-0.006497	-0.000263	0.023314
09445	14744976	-2.382607	0.007080	9.696006	-0.040808	0.012340	-0.036541	-0.005956	0.000019	0.024240
09446	14745001	-2.540372	-0.046177	9.956563	-0.051294	0.045966	-0.030085	-0.006350	-0.000114	0.024892
09447	14745026	-2.819908	-0.383682	9.659902	-0.077198	0.044143	-0.018103	-0.007048	-0.000957	0.024150
09448	14745051	-2.832965	-0.349491	9.379252	-0.076570	0.033645	-0.007080	-0.007081	-0.000871	0.023449
09449	14745076	-2.638442	-0.397261	9.278087	-0.046994	0.038740	-0.014348	-0.006595	-0.000992	0.023196
09450	14745101	-2.635849	-0.321999	9.372790	-0.021729	0.053178	-0.021419	-0.006588	-0.000804	0.023432
09451	14745126	-2.742274	-0.160418	9.604809	-0.006430	0.059444	-0.042894	-0.006854	-0.000400	0.024013
09452	14745151	-2.844296	-0.223583	9.573926	0.003542	0.056922	-0.057088	-0.007109	-0.000559	0.023935
09453	14745176	-2.757309	-0.149247	9.562237	0.019090	0.061342	-0.072166	-0.006891	-0.000373	0.023906
09454	14745201	-2.696622	-0.202716	9.504884	0.032844	0.066294	-0.073436	-0.006740	-0.000507	0.023763
09455	14745226	-2.682866	-0.275574	9.471388	0.037512	0.076336	-0.076662	-0.006705	-0.000689	0.023679
09456	14745251	-2.680122	-0.274292	9.498018	0.040455	0.075410	-0.075136	-0.006698	-0.000686	0.023746
09457	14745276	-2.648451	-0.270195	9.499376	0.034912	0.079511	-0.071676	-0.006619	-0.000676	0.023749
09458	14745301	-2.598889	-0.319769	9.500567	0.018837	0.078189	-0.052966	-0.006495	-0.000800	0.023752
09459	14745326	-2.616583	-0.234213	9.451609	0.009342	0.079475	-0.036335	-0.006539	-0.000586	0.023630
09460	14745351	-2.602711	-0.246475	9.412984	0.005431	0.078005	-0.029920	-0.006505	-0.000616	0.023533
09461	14745376	-2.606744	-0.188608	9.405203	0.001617	0.078233	-0.031829	-0.006515	-0.000471	0.023514
09462	14745401	-2.561060	-0.125172	9.365523	0.000535	0.080056	-0.028645	-0.006400	-0.000313	0.023414
09463	14745426	-2.563810	-0.126483	9.357534	-0.004512	0.080271	-0.019363	-0.006407	-0.000316	0.023394
09464	14745451	-2.583016	-0.120878	9.325602	-0.005108	0.078580	-0.018303	-0.006455	-0.000302	0.023315
09465	14745476	-2.582937	-0.112521	9.301690	-0.007513	0.072519	-0.022633	-0.006455	-0.000281	0.023255
09466	14745501	-2.613405	-0.141549	9.340161	0.000246	0.071220	-0.028081	-0.006531	-0.000354	0.023351
09467	14745526	-2.658864	-0.182754	9.313387	0.006118	0.064868	-0.033973	-0.006645	-0.000457	0.023284
09468	14745551	-2.610693	-0.199330	9.325332	-0.002074	0.061741	-0.029154	-0.006525	-0.000498	0.023314
09469	14745576	-2.585664	-0.145375	9.254996	-0.001602	0.055943	-0.036526	-0.006463	-0.000363	0.023138
09470	14745601	-2.559501	-0.120756	9.296346	0.001691	0.065152	-0.040640	-0.006397	-0.000302	0.023241
09471	14745626	-2.551409	-0.175962	9.334752	0.007908	0.061193	-0.039208	-0.006377	-0.000440	0.023337
09472	14745651	-2.580346	-0.164996	9.340106	-0.006004	0.064626	-0.038885	-0.006449	-0.000412	0.023351
09473	14745676	-2.581771	-0.163641	9.354741	-0.005203	0.066072	-0.039130	-0.006453	-0.000409	0.023387
09474	14745701	-2.601070	-0.178751	9.341367	0.000787	0.067282	-0.045900	-0.006501	-0.000447	0.023354
09475	14745726	-2.627176	-0.160787	9.329442	-0.000863	0.064132	-0.045294	-0.006566	-0.000402	0.023324
09476	14745751	-2.661785	-0.165127	9.381306	-0.000030	0.071664	-0.044288	-0.006652	-0.000412	0.023454
09477	14745776	-2.754398	-0.230044	9.448877	0.000723	0.075416	-0.045854	-0.006884	-0.000575	0.023623
09478	14745801	-2.760087	-0.289358	9.484607	0.004889	0.076626	-0.044699	-0.006898	-0.000723	0.023712
09479	14745826	-2.693759	-0.238341	9.450221	-0.003269	0.074102	-0.041567	-0.006732	-0.000595	0.023626
09480	14745851	-2.637072	-0.214706	9.387790	-0.009097	0.077307	-0.043049	-0.006590	-0.000536	0.023470
09481	14745876	-2.604007	-0.236700	9.383756	-0.008249	0.083372	-0.042799	-0.006508	-0.000591	0.023460
09482	14745901	-2.614959	-0.209133	9.371863	-0.010122	0.094654	-0.039880	-0.006535	-0.000522	0.023430
09483	14745926	-2.595663	-0.211893	9.370540	-0.014713	0.098501	-0.036541	-0.006486	-0.000529	0.023427
09484	14745951	-2.610874	-0.192711	9.401200	-0.012921	0.103772	-0.038409	-0.006524	-0.000481	0.023504
09485	14745976	-2.601121	-0.171919	9.360013	-0.013554	0.111608	-0.037730	-0.006500	-0.000429	0.023401
09486	14746001	-2.596869	-0.119589	9.346891	-0.018336	0.122051	-0.036338	-0.006489	-0.000298	0.023368
09487	14746026	-2.599675	-0.134743	9.353488	-0.017256	0.129646	-0.042844	-0.006495	-0.000336	0.023385
09488	14746051	-2.635536	-0.137483	9.365431	-0.022167	0.138909	-0.044082	-0.006585	-0.000343	0.023415
09489	14746076	-2.658992	-0.126598	9.385420	-0.011006	0.146337	-0.048380	-0.006643	-0.000316	0.023465
09490	14746101	-2.654777	-0.133338	9.346812	-0.012745	0.150521	-0.051150	-0.006633	-0.000333	0.023368
09491	14746126	-2.663014	-0.134654	9.337490	-0.011194	0.160918	-0.055964	-0.006653	-0.000336	0.023345
09492	14746151	-2.686590	-0.156863	9.386629	-0.002939	0.163060	-0.063036	-0.006712	-0.000392	0.023468
09493	14746176	-2.722348	-0.134799	9.368052	-0.003533	0.167540	-0.071111	-0.006801	-0.000336	0.023422
09494	14746201	-2.703212	-0.165190	9.405219	-0.006217	0.170864	-0.068761	-0.006753	-0.000412	0.023514
09495	14746226	-2.744347	-0.133306	9.348098	-0.009973	0.173965	-0.072238	-0.006856	-0.000332	0.023372
09496	14746251	-2.756870	-0.149970	9.383944	-0.011195	0.171375	-0.072372	-0.006887	-0.000374	0.023461
09497	14746276	-2.810775	-0.188626	9.422390	-0.008065	0.173077	-0.080173	-0.007022	-0.000471	0.023557
09498	14746301	-2.798249	-0.180198	9.373175	-0.003237	0.168996	-0.078253	-0.006991	-0.000450	0.023434
09499	14746326	-2.740096	-0.146871	9.292164	-0.009429	0.165910	-0.082739	-0.006845	-0.000366	0.023232
09500	14746351	-2.716629	-0.167440	9.269506	-0.005163	0.166351	-0.078450	-0.006787	-0.000418	0.023175
09501	14746376	-2.662918	-0.200465	9.260097	-0.012536	0.159572	-0.080876	-0.006653	-0.000500	0.023152
09502	14746401	-2.624397	-0.240417	9.273304	-0.019892	0.161311	-0.079308	-0.006556	-0.000600	0.023185
09503	14746426	-2.587070	-0.240257	9.225423	-0.020967	0.152707	-0.080870	-0.006463	-0.000599	0.023065
09504	14746451	-2.662946	-0.233477	9.257333	-0.025886	0.150584	-0.083542	-0.006653	-0.000582	0.023145
09505	14746476	-2.690762	-0.237957	9.354431	-0.027025	0.153370	-0.079112	-0.006722	-0.000593	0.023387
09506	14746501	-2.761225	-0.242316	9.416911	-0.024389	0.152403	-0.084096	-0.006899	-0.000604	0.023544
09507	14746526	-2.779246	-0.231460	9.459498	-0.031173	0.161383	-0.083472	-0.006943	-0.000577	0.023650
09508	14746551	-2.750171	-0.177700	9.439737	-0.032890	0.171289	-0.079799	-0.006870	-0.000443	0.023601
09509	14746576	-2.686815	-0.173636	9.451758	-0.041081	0.191033	-0.081442	-0.006711	-0.000432	0.023631
09510	14746601	-2.610859	-0.174828	9.395918	-0.042456	0.210221	-0.077774	-0.006521	-0.000435	0.023492
09511	14746626	-2.649509	-0.154235	9.418586	-0.037043	0.240199	-0.081198	-0.006617	-0.000384	0.023548
09512	14746651	-2.639952	-0.135188	9.467877	-0.045577	0.266741	-0.079973	-0.006592	-0.000336	0.023672
09513	14746676	-2.602792	-0.159991	9.471799	-0.055318	0.293414	-0.086389	-0.006498	-0.000398	0.023682
09514	14746701	-2.574913	-0.132084	9.369476	-0.059499	0.317143	-0.090882	-0.006428	-0.000328	0.023426
09515	14746726	-2.649406	-0.149955	9.381344	-0.055793	0.349423	-0.096455	-0.006613	-0.000372	0.023456
09516	14746751	-2.710270	-0.170903	9.463746	-0.052258	0.373483	-0.095262	-0.006765	-0.000425	0.023663
09517	14746776	-2.768184	-0.168227	9.477020	-0.056277	0.386152	-0.096555	-0.006909	-0.000418	0.023696
09518	14746801	-2.754291	-0.190051	9.423736	-0.063971	0.401844	-0.098445	-0.006874	-0.000472	0.023563
09519	14746826	-2.756763	-0.182712	9.309319	-0.070430	0.415315	-0.101195	-0.006880	-0.000454	0.023277
09520	14746851	-2.727674	-0.177019	9.256142	-0.071160	0.419115	-0.104456	-0.006807	-0.000440	0.023144
09521	14746876	-2.715176	-0.233233	9.194762	-0.071417	0.422655	-0.104086	-0.006776	-0.000580	0.022991
09522	14746901	-2.724850	-0.218167	9.222747	-0.069350	0.419870	-0.112455	-0.006800	-0.000542	0.023060
09523	14746926	-2.786746	-0.205606	9.176194	-0.073552	0.411068	-0.110292	-0.006955	-0.000511	0.022944
09524	14746951	-2.848958	-0.241620	9.230592	-0.077367	0.401551	-0.109501	-0.007111	-0.000601	0.023080
09525	14746976	-2.930431	-0.314592	9.256920	-0.073090	0.387134	-0.118728	-0.007315	-0.000783	0.023146
09526	14747001	-3.116907	-0.364637	9.396363	-0.060768	0.366224	-0.125879	-0.007782	-0.000909	0.023495
09527	14747026	-3.179145	-0.384195	9.466758	-0.036846	0.344783	-0.130741	-0.007938	-0.000958	0.023670
09528	14747051	-3.031236	-0.345129	9.309970	-0.051962	0.321785	-0.130019	-0.007569	-0.000860	0.023278
09529	14747076	-3.076654	-0.272168	9.322163	-0.061049	0.305760	-0.122322	-0.007683	-0.000677	0.023308
09530	14747101	-3.085147	-0.363183	9.367093	-0.061704	0.286038	-0.120184	-0.007705	-0.000905	0.023421
09531	14747126	-3.087869	-0.368604	9.335139	-0.060432	0.273439	-0.114533	-0.007712	-0.000919	0.023341
09532	14747151	-3.152770	-0.370198	9.404299	-0.059862	0.263040	-0.113335	-0.007874	-0.000923	0.023513
09533	14747176	-3.123943	-0.362050	9.434934	-0.054926	0.245197	-0.111964	-0.007803	-0.000902	0.023590
09534	14747201	-3.056228	-0.348090	9.373808	-0.061695	0.241171	-0.111762	-0.007634	-0.000867	0.023437
09535	14747226	-2.918141	-0.277668	9.308925	-0.061184	0.240207	-0.105491	-0.007288	-0.000691	0.023275
09538	14747251	-2.948426	-0.331124	9.255505	-0.064816	0.243555	-0.101209	-0.007364	-0.000825	0.023141
09539	14747276	-2.961014	-0.308090	9.354030	-0.061347	0.246917	-0.104126	-0.007395	-0.000767	0.023387
09540	14747301	-2.912692	-0.307998	9.319467	-0.063416	0.246970	-0.108956	-0.007275	-0.000767	0.023301
09541	14747326	-2.862994	-0.292696	9.278294	-0.057973	0.255007	-0.107293	-0.007150	-0.000729	0.023198
09542	14747351	-2.959354	-0.324073	9.215600	-0.056303	0.269501	-0.112116	-0.007391	-0.000808	0.023042
09543	14747376	-3.035576	-0.280813	9.419275	-0.047407	0.275219	-0.112990	-0.007581	-0.000700	0.023551
09544	14747401	-3.056400	-0.366168	9.417658	-0.047630	0.278604	-0.110304	-0.007633	-0.000913	0.023547
09545	14747426	-3.024489	-0.316393	9.367260	-0.062047	0.290939	-0.113745	-0.007553	-0.000788	0.023421
09546	14747451	-2.854855	-0.314887	9.324790	-0.048313	0.295322	-0.111505	-0.007129	-0.000785	0.023315
09547	14747476	-2.879322	-0.402265	9.136885	-0.045584	0.310402	-0.115316	-0.007190	-0.001003	0.022845
09548	14747501	-2.969512	-0.526749	9.308071	-0.037371	0.330453	-0.115582	-0.007414	-0.001315	0.023273
09549	14747526	-3.005594	-0.516192	9.417176	-0.033970	0.337197	-0.119942	-0.007504	-0.001288	0.023546
09550	14747551	-2.893516	-0.438656	9.283110	-0.033425	0.342262	-0.119123	-0.007224	-0.001095	0.023211
09551	14747576	-2.832594	-0.392853	9.190167	-0.028905	0.356168	-0.109650	-0.007071	-0.000980	0.022979
09552	14747601	-2.967642	-0.355717	9.211502	-0.033173	0.369732	-0.101940	-0.007409	-0.000887	0.023032
09553	14747626	-3.064428	-0.309471	9.363282	-0.035153	0.385670	-0.103788	-0.007650	-0.000772	0.023412
09554	14747651	-2.916911	-0.336979	9.327329	-0.040418	0.391077	-0.094253	-0.007281	-0.000840	0.023322
09555	14747676	-2.621407	-0.336080	9.088004	-0.045227	0.401932	-0.099479	-0.006542	-0.000838	0.022723
09556	14747701	-2.448654	-0.441203	8.852259	-0.036617	0.423215	-0.106305	-0.006110	-0.001101	0.022134
09557	14747726	-2.434880	-0.428847	8.864298	-0.013246	0.442062	-0.109826	-0.006075	-0.001071	0.022164
09558	14747751	-2.600482	-0.397567	8.973425	-0.010994	0.466853	-0.110087	-0.006488	-0.000993	0.022437
09559	14747776	-2.765018	-0.351665	9.210312	-0.011431	0.482038	-0.111425	-0.006899	-0.000878	0.023030
09560	14747801	-2.818840	-0.390162	9.208814	-0.009595	0.493860	-0.109795	-0.007033	-0.000974	0.023026
09561	14747826	-2.942774	-0.413332	9.142142	-0.010173	0.511403	-0.105503	-0.007342	-0.001032	0.022860
09562	14747851	-2.963659	-0.342187	9.275412	-0.006452	0.531012	-0.106308	-0.007394	-0.000854	0.023193
09563	14747876	-2.900096	-0.284281	9.233050	-0.002117	0.548656	-0.104278	-0.007234	-0.000710	0.023088
09564	14747901	-2.847487	-0.358094	9.094466	-0.009163	0.562044	-0.108410	-0.007103	-0.000894	0.022741
09565	14747926	-2.846117	-0.392413	9.085044	-0.001821	0.591312	-0.116515	-0.007099	-0.000980	0.022718
09566	14747951	-2.858671	-0.424270	9.138138	0.019249	0.609149	-0.124562	-0.007129	-0.001060	0.022851
09567	14747976	-2.902569	-0.412935	9.038385	0.029545	0.627275	-0.126682	-0.007239	-0.001032	0.022602
09568	14748001	-2.949684	-0.416104	9.155416	0.022402	0.652556	-0.129020	-0.007356	-0.001040	0.022895
09569	14748026	-2.920773	-0.432557	9.142070	0.025742	0.673036	-0.134639	-0.007283	-0.001081	0.022861
09570	14748051	-3.036226	-0.521239	8.944838	0.032607	0.699780	-0.134550	-0.007571	-0.001303	0.022369
09571	14748076	-3.156667	-0.360163	9.299181	0.045684	0.726091	-0.126214	-0.007871	-0.000900	0.023255
09572	14748101	-3.076711	-0.305082	9.282096	0.040302	0.741172	-0.119190	-0.007670	-0.000763	0.023212
09573	14748126	-2.963239	-0.319503	9.085166	0.013505	0.780226	-0.118367	-0.007386	-0.000798	0.022720
09574	14748151	-2.810268	-0.331819	9.074561	0.019597	0.834298	-0.119612	-0.007002	-0.000829	0.022694
09575	14748176	-2.703042	-0.336440	9.193044	0.030242	0.914976	-0.130099	-0.006731	-0.000841	0.022990
09576	14748201	-2.750042	-0.256960	9.286463	0.044422	0.986563	-0.136179	-0.006847	-0.000643	0.023225
09577	14748226	-2.837980	-0.293659	9.157170	0.030746	1.059458	-0.132781	-0.007065	-0.000734	0.022902
09578	14748251	-2.669639	-0.287829	9.078750	0.034451	1.135220	-0.147583	-0.006642	-0.000719	0.022706
09579	14748276	-2.577805	-0.571547	9.139181	0.070684	1.199894	-0.161871	-0.006411	-0.001430	0.022857
09580	14748301	-2.936397	-0.812107	9.083672	0.144015	1.251506	-0.183198	-0.007306	-0.002033	0.022720
09581	14748326	-3.212236	-0.823621	9.195151	0.180946	1.301243	-0.199153	-0.007994	-0.002062	0.023000
09582	14748351	-3.006713	-0.604697	9.208001	0.225471	1.329456	-0.184375	-0.007479	-0.001517	0.023032
09583	14748376	-3.241121	-0.876926	9.109878	0.266291	1.350624	-0.154412	-0.008065	-0.002198	0.022788
09584	14748401	-3.322042	-0.659734	9.135803	0.214452	1.355434	-0.113875	-0.008267	-0.001654	0.022853
09585	14748426	-3.160581	-0.677073	8.996123	0.117412	1.329804	-0.050862	-0.007864	-0.001695	0.022503
09586	14748451	-3.350060	-0.851635	8.608301	0.104742	1.283818	-0.021172	-0.008341	-0.002132	0.021534
09587	14748476	-3.439086	-0.708121	8.507626	0.116354	1.229521	-0.005083	-0.008565	-0.001773	0.021282
09588	14748501	-3.739057	-0.460228	8.475036	0.088762	1.155894	0.003505	-0.009317	-0.001153	0.021201
09589	14748526	-3.848061	-0.266604	8.619336	0.089204	1.068302	0.012451	-0.009591	-0.000669	0.021561
09590	14748551	-4.017199	-0.176763	8.516997	0.091052	0.985086	-0.000794	-0.010017	-0.000444	0.021305
09591	14748576	-3.880848	-0.012122	8.651960	0.088257	0.919678	-0.014761	-0.009677	-0.000033	0.021641
09592	14748601	-3.593130	-0.226724	8.616787	0.097358	0.870349	-0.045237	-0.008959	-0.000569	0.021552
09593	14748626	-3.711595	-0.335186	8.552551	0.118727	0.858937	-0.054014	-0.009256	-0.000841	0.021391
09594	14748651	-3.586056	-0.407240	9.024644	0.129683	0.856613	-0.061424	-0.008941	-0.001021	0.022571
09595	14748676	-3.473126	-0.453852	8.970031	0.115226	0.857626	-0.062718	-0.008659	-0.001137	0.022434
09596	14748701	-3.289822	-0.598104	8.904433	0.119995	0.887601	-0.051318	-0.008200	-0.001498	0.022270
09597	14748726	-3.490978	-0.602093	8.864503	0.135633	0.928404	-0.043286	-0.008702	-0.001509	0.022171
09598	14748751	-3.935337	-0.258278	9.324336	0.118153	0.978965	-0.019327	-0.009810	-0.000649	0.023323
09599	14748776	-3.971980	-0.400719	9.496835	0.100663	1.012785	-0.001228	-0.009900	-0.001005	0.023755
09600	14748801	-4.067628	-0.274294	9.219105	0.104606	1.067530	0.000925	-0.010138	-0.000689	0.023061
09601	14748826	-4.321348	-0.464046	9.170545	0.123996	1.140941	-0.003937	-0.010771	-0.001164	0.022942
09602	14748851	-5.022396	-0.266372	9.721428	0.146118	1.212155	-0.006481	-0.012519	-0.000670	0.024322
09603	14748876	-4.627826	-0.244145	10.011788	0.158197	1.252588	0.003047	-0.011530	-0.000615	0.025047
09604	14748901	-4.427831	-0.277495	9.358452	0.167705	1.308330	-0.003479	-0.011031	-0.000699	0.023414
09605	14748926	-4.056445	-0.333161	9.130958	0.183742	1.385305	0.006855	-0.010102	-0.000838	0.022845
09606	14748951	-3.939281	-0.304379	9.149874	0.193875	1.456968	0.009075	-0.009807	-0.000767	0.022892
09607	14748976	-4.372496	-0.445171	9.286304	0.194110	1.517690	0.006992	-0.010887	-0.001119	0.023236
09608	14749001	-4.397857	-0.449970	9.479002	0.250437	1.551711	0.015660	-0.010949	-0.001133	0.023718
09609	14749026	-4.135506	-0.462906	9.239673	0.295955	1.568028	0.016712	-0.010293	-0.001166	0.023119
09610	14749051	-4.135633	-0.269148	8.905023	0.278665	1.594399	0.030987	-0.010295	-0.000681	0.022283
09611	14749076	-3.995313	-0.270967	9.052904	0.259565	1.595239	0.069600	-0.009943	-0.000686	0.022652
09612	14749101	-4.385623	-0.249133	9.122051	0.237940	1.593230	0.086060	-0.010919	-0.000631	0.022827
09613	14749126	-4.840312	-0.337007	9.076126	0.250314	1.585556	0.106417	-0.012056	-0.000851	0.022714
09614	14749151	-4.643912	-0.185544	9.449231	0.264231	1.548859	0.124444	-0.011564	-0.000473	0.023645
09615	14749176	-4.337821	-0.238706	9.285609	0.300433	1.486314	0.130501	-0.010801	-0.000607	0.023234
09616	14749201	-4.315692	-0.114446	8.800423	0.279868	1.440809	0.133331	-0.010750	-0.000296	0.022020
09617	14749226	-4.296141	-0.041466	8.784678	0.251733	1.412914	0.147022	-0.010702	-0.000113	0.021981
09618	14749251	-4.323243	-0.130777	9.114356	0.233013	1.391289	0.146698	-0.010768	-0.000336	0.022805
09619	14749276	-4.135135	-0.241534	9.308296	0.250994	1.361779	0.133091	-0.010298	-0.000613	0.023288
09620	14749301	-4.226907	-0.332446	8.947460	0.286190	1.343829	0.119250	-0.010530	-0.000841	0.022386
09621	14749326	-4.220593	-0.303922	8.675944	0.291091	1.372320	0.121588	-0.010514	-0.000769	0.021708
09622	14749351	-3.897755	-0.216503	9.208602	0.296056	1.412766	0.111465	-0.009704	-0.000551	0.023038
09623	14749376	-3.608937	-0.424310	9.220171	0.346981	1.452745	0.087933	-0.008980	-0.001072	0.023066
09624	14749401	-3.759461	-0.242822	8.885393	0.409010	1.554161	0.065635	-0.009355	-0.000619	0.022231
09625	14749426	-3.601589	-0.099854	9.299578	0.449989	1.698863	0.062646	-0.008955	-0.000263	0.023268
09626	14749451	-3.354388	-0.209159	9.445743	0.517870	1.836711	0.059339	-0.008332	-0.000539	0.023633
09627	14749476	-3.271461	-0.110349	9.547379	0.591174	2.021129	0.044268	-0.008118	-0.000294	0.023889
09628	14749501	-3.222059	-0.344639	9.275099	0.720614	2.175832	0.027786	-0.007992	-0.000883	0.023209
09629	14749526	-3.214609	-0.204435	8.601017	0.833803	2.365960	0.003615	-0.007973	-0.000534	0.021526
09630	14749551	-3.280253	-0.222546	8.595628	0.960747	2.584916	-0.025147	-0.008131	-0.000582	0.021515
09631	14749576	-3.341037	0.097855	8.693910	1.006984	2.754893	-0.040655	-0.008278	0.000218	0.021764
09632	14749601	-3.521982	0.297885	8.255359	1.032935	2.931228	-0.070083	-0.008729	0.000719	0.020671
09633	14749626	-3.481009	0.145536	8.084081	1.128087	3.198479	-0.121031	-0.008622	0.000337	0.020245
09634	14749651	-3.060203	-0.094239	8.867372	1.266813	3.433548	-0.202391	-0.007555	-0.000269	0.022201
09635	14749676	-3.663073	1.322776	8.730717	1.304286	3.602390	-0.353356	-0.009058	0.003275	0.021873
09636	14749701	-4.274854	1.335178	8.406099	1.290072	3.722421	-0.448433	-0.010587	0.003310	0.021070
09637	14749726	-5.019768	0.791130	7.106037	1.206746	3.759531	-0.550478	-0.012464	0.001960	0.017827
09640	14749751	-5.284704	1.202152	6.365580	0.957351	3.687329	-0.625708	-0.013136	0.002997	0.015978
09641	14749776	-5.253955	0.914479	7.137577	0.843699	3.554941	-0.643095	-0.013054	0.002278	0.017904
09642	14749801	-1.987153	-0.752870	6.588694	0.823748	3.750640	-0.661303	-0.004892	-0.001895	0.016493
09643	14749826	1.402056	-0.750919	9.560010	0.779205	4.338503	-0.635754	0.003633	-0.001903	0.023879
09644	14749851	0.534972	-2.679630	10.656638	0.833886	4.975320	-0.459835	0.001499	-0.006728	0.026626
09645	14749876	-2.507515	-2.394380	12.731524	1.074538	5.475617	-0.446223	-0.006054	-0.006025	0.031863
09646	14749901	-4.112076	0.840818	9.378132	0.572455	5.452525	-0.498394	-0.010119	0.002092	0.023516
09647	14749926	-5.788598	0.310873	6.035043	0.847649	5.444465	-0.611359	-0.014368	0.000772	0.015186
09648	14749951	-4.374976	-0.342836	7.772001	1.151491	5.631848	-0.878088	-0.010801	-0.000873	0.019505
09649	14749976	-2.341870	-0.948232	11.047453	1.438462	5.835684	-1.153313	-0.005656	-0.002412	0.027656
09650	14750001	-2.891840	-1.155072	12.159944	1.626968	6.063358	-1.307072	-0.007004	-0.002938	0.030448
09651	14750026	-4.851014	-0.105448	13.711066	1.514259	6.226113	-1.332936	-0.011861	-0.000309	0.034370
09652	14750051	-5.533757	0.815660	13.771286	1.181741	6.236235	-1.371850	-0.013562	0.002012	0.034538
09653	14750076	-6.521532	3.566689	12.000976	1.086174	6.302615	-1.471703	-0.016050	0.008906	0.030142
09654	14750101	-6.219408	3.475884	10.939877	1.048257	6.403758	-1.684215	-0.015311	0.008686	0.027484
09655	14750126	-5.287577	4.255050	9.420615	1.254249	6.511677	-1.965602	-0.013000	0.010633	0.023675
09656	14750151	-4.833131	3.276368	9.666228	1.364505	6.605712	-2.222843	-0.011860	0.008183	0.024278
09657	14750176	-6.409074	1.241435	9.830908	1.512197	6.746924	-2.477076	-0.015805	0.003106	0.024717
09658	14750201	-7.007642	-0.379643	10.154083	1.842579	6.898246	-2.678922	-0.017303	-0.000950	0.025533
09659	14750226	-5.926648	2.723519	10.922822	1.962608	6.978555	-2.771339	-0.014554	0.006792	0.027451
09660	14750251	-4.220802	4.659815	15.074461	1.384742	6.899728	-2.572488	-0.010189	0.011617	0.037795
09661	14750276	-3.400100	1.220740	15.378632	0.988720	6.905224	-2.631187	-0.008158	0.003031	0.038522
09662	14750301	-8.426366	-3.714769	10.948001	1.320386	7.255640	-2.796141	-0.020849	-0.009259	0.027544
09663	14750326	-11.187441	-6.690863	9.319059	1.884415	7.537974	-2.882881	-0.027808	-0.016682	0.023521
09664	14750351	-10.635237	-4.595388	9.832599	2.189740	7.586498	-2.848920	-0.026394	-0.011462	0.024801
09665	14750376	-9.489994	2.580483	12.206312	2.134193	7.484727	-2.778313	-0.023416	0.006451	0.030753
09666	14750401	-10.184010	14.182253	17.994850	1.112303	7.405855	-2.388334	-0.024936	0.035468	0.045269
09667	14750426	-9.220658	11.230770	16.651480	-0.083306	7.461210	-2.424859	-0.022577	0.028150	0.041838
09668	14750451	-7.396137	10.767008	13.707941	-0.125561	7.599234	-2.810827	-0.018069	0.026987	0.034439
09669	14750476	-5.957458	8.573571	10.635040	0.105773	7.487250	-3.109683	-0.014560	0.021487	0.026728
09670	14750501	-5.197989	7.256842	8.648225	0.164288	7.468686	-3.366315	-0.012716	0.018192	0.021744
09671	14750526	-4.642125	5.597927	9.378224	0.064945	7.653591	-3.607482	-0.011317	0.014044	0.023556
09672	14750551	-3.760136	3.954684	11.891172	0.055882	7.810966	-3.790857	-0.009063	0.009928	0.029818
09673	14750576	-2.484722	4.084124	18.046584	0.167202	7.765268	-3.922865	-0.005723	0.010230	0.045176
09674	14750601	-3.306320	3.421338	19.148851	0.218016	7.603258	-3.997029	-0.007767	0.008580	0.047950
09675	14750626	-2.430161	3.484733	15.925961	-0.276951	7.639377	-4.002807	-0.005651	0.008755	0.039867
09676	14750651	-0.918574	3.991660	12.516580	-1.067626	7.826200	-3.910306	-0.001941	0.010031	0.031298
09677	14750676	-1.318378	3.821832	9.370509	-1.748234	8.012589	-3.727807	-0.003017	0.009620	0.023436
09678	14750701	-4.182132	3.937544	7.938307	-2.449823	8.317660	-3.520872	-0.010205	0.009950	0.019922
09679	14750726	-4.029642	5.110244	12.306763	-2.944382	8.457687	-3.372970	-0.009694	0.012930	0.030823
09680	14750751	-3.209940	6.602490	12.874723	-3.150279	8.320193	-3.243103	-0.007623	0.016664	0.032202
09681	14750776	-8.703648	12.001770	11.951129	-3.384406	8.268202	-2.895089	-0.021341	0.030209	0.029972
09682	14750801	-25.051524	14.709158	22.172465	-3.467394	8.154937	-2.217638	-0.061958	0.037187	0.055904
09683	14750826	-42.017013	20.811575	31.741192	-3.160148	7.595213	-1.211911	-0.104205	0.052503	0.080138
09684	14750851	-47.579311	20.113075	44.232724	-2.484475	6.505929	-0.016126	-0.118044	0.050630	0.111387
09685	14750876	-49.211957	14.575054	65.166366	-0.605956	4.214379	0.661132	-0.122200	0.036460	0.163534
09686	14750901	-47.831737	12.969843	63.576430	1.838085	1.365247	0.820045	-0.119341	0.031937	0.159219
09687	14750926	-36.296063	15.564499	53.180142	3.217782	-0.891594	0.841084	-0.090929	0.038281	0.133004
09688	14750951	-24.374328	18.258644	41.224776	3.044063	-2.524652	0.851672	-0.061309	0.045189	0.103041
09689	14750976	-15.444578	22.293234	34.767424	1.261538	-3.279378	0.684582	-0.039015	0.055563	0.086847
09690	14751001	-12.265169	24.977113	39.986177	0.719365	-3.566181	0.409460	-0.031140	0.062337	0.099883
09691	14751026	-6.752018	22.430381	43.964219	2.793619	-2.619175	-0.168871	-0.017228	0.055695	0.110049
09692	14751051	0.312893	20.586362	41.740934	3.294264	-1.210379	-0.385014	0.000649	0.051035	0.104564
09693	14751076	-0.093501	18.364724	44.242305	0.829685	-0.902933	0.044233	-0.000361	0.045797	0.110653
09694	14751101	-4.607785	16.239937	37.223692	-1.496546	-1.470284	0.342706	-0.011708	0.040769	0.092962
09695	14751126	-3.740437	15.068563	26.456420	-2.120355	-1.849880	0.422346	-0.009524	0.037841	0.066019
09696	14751151	-1.380488	12.948908	17.989444	-2.169871	-1.967287	0.490895	-0.003582	0.032492	0.044877
09697	14751176	1.139211	11.011403	14.236512	-2.276705	-1.931754	0.527076	0.002744	0.027631	0.035519
09698	14751201	3.502346	10.281391	13.300824	-2.468885	-2.013142	0.544929	0.008655	0.025812	0.033194
09699	14751226	2.900618	8.674730	10.839024	-2.671359	-2.086789	0.524382	0.007167	0.021782	0.027044
09700	14751251	2.168423	7.741212	9.041774	-2.695375	-2.082481	0.476782	0.005351	0.019432	0.022553
09701	14751276	1.681178	7.310745	7.457803	-2.566118	-2.062029	0.403689	0.004146	0.018339	0.018596
09702	14751301	1.378845	6.556980	5.990530	-2.412858	-2.037820	0.364571	0.003402	0.016439	0.014935
09703	14751326	0.980358	5.755583	4.555983	-2.349766	-2.100229	0.334454	0.002415	0.014423	0.011354
09704	14751351	1.617035	5.112701	2.043877	-2.160021	-2.192921	0.340464	0.004023	0.012797	0.005086
09705	14751376	2.766845	3.707346	-2.345904	-1.372764	-2.196918	0.414377	0.006928	0.009262	-0.005862
09706	14751401	2.508011	0.982573	-3.732752	-0.440747	-2.116006	0.417869	0.006293	0.002455	-0.009317
09707	14751426	1.876197	0.668542	-0.234636	0.063710	-2.095265	0.350967	0.004691	0.001673	-0.000574
09708	14751451	1.686290	2.600589	4.642760	0.197691	-2.293386	0.353443	0.004180	0.006500	0.011621
09709	14751476	1.368126	3.441180	6.550897	0.072782	-2.521051	0.425797	0.003364	0.008603	0.016389
09710	14751501	1.400188	3.514742	7.143431	-0.154157	-2.675270	0.527843	0.003435	0.008793	0.017868
09711	14751526	1.626334	3.146714	6.964041	-0.252471	-2.734348	0.613870	0.004000	0.007875	0.017421
09712	14751551	1.776927	2.438421	6.839188	-0.198248	-2.709585	0.702512	0.004379	0.006104	0.017111
09713	14751576	1.546278	2.084333	7.287354	-0.081721	-2.681691	0.780098	0.003800	0.005216	0.018231
09714	14751601	1.151875	2.027044	7.875071	-0.010866	-2.698341	0.848067	0.002808	0.005071	0.019697
09715	14751626	0.640201	2.093114	8.610658	0.007252	-2.743843	0.923104	0.001521	0.005234	0.021532
09716	14751651	0.182843	2.124422	9.117564	0.031285	-2.792077	0.980953	0.000371	0.005311	0.022796
09717	14751676	-0.024624	2.108359	9.773500	0.097803	-2.769071	1.015947	-0.000153	0.005268	0.024434
09718	14751701	-0.232336	2.206238	10.807418	0.172983	-2.740309	1.052905	-0.000681	0.005509	0.027018
09719	14751726	-0.613036	2.347425	11.651220	0.178108	-2.755145	1.094372	-0.001641	0.005860	0.029124
09720	14751751	-0.901284	2.545479	12.061701	0.095268	-2.835922	1.153494	-0.002369	0.006357	0.030147
09721	14751776	-1.154402	2.404587	11.879996	0.019296	-2.944138	1.208827	-0.003004	0.006006	0.029689
09722	14751801	-1.410412	2.286093	11.596076	0.022319	-3.036909	1.238041	-0.003645	0.005709	0.028977
09723	14751826	-1.563130	2.296221	11.488325	0.062026	-3.137936	1.250953	-0.004029	0.005732	0.028706
09724	14751851	-1.660756	2.202858	11.392156	0.085180	-3.267828	1.266276	-0.004277	0.005497	0.028464
09725	14751876	-1.718427	2.152487	11.247049	0.054592	-3.409833	1.280712	-0.004424	0.005372	0.028099
09726	14751901	-1.702848	2.052799	11.048463	0.030103	-3.524992	1.292272	-0.004387	0.005124	0.027602
09727	14751926	-1.539826	1.782770	10.757697	0.016986	-3.621011	1.305339	-0.003979	0.004450	0.026877
09728	14751951	-1.414975	1.448561	10.282924	0.002694	-3.698106	1.315213	-0.003662	0.003615	0.025691
09729	14751976	-1.352187	1.138132	9.759035	-0.022179	-3.745743	1.337921	-0.003499	0.002840	0.024381
09730	14752001	-1.294753	0.770003	9.179018	-0.041090	-3.783915	1.357573	-0.003349	0.001921	0.022932
09731	14752026	-1.274195	0.435311	8.504573	-0.042813	-3.808877	1.367921	-0.003289	0.001084	0.021246
09732	14752051	-1.293754	0.129529	7.843670	-0.034078	-3.830874	1.375276	-0.003329	0.000319	0.019593
09733	14752076	-1.291269	-0.132503	7.234640	-0.012800	-3.851310	1.382898	-0.003315	-0.000337	0.018071
09734	14752101	-1.450694	-0.499508	6.736944	0.010361	-3.860591	1.385903	-0.003706	-0.001255	0.016825
09735	14752126	-1.626512	-0.741692	6.379573	0.070086	-3.877764	1.378958	-0.004140	-0.001863	0.015929
09736	14752151	-1.637992	-0.951792	5.878640	0.127286	-3.894982	1.373767	-0.004162	-0.002389	0.014676
09737	14752176	-1.633511	-1.139154	5.550642	0.163720	-3.900732	1.364735	-0.004147	-0.002858	0.013856
09738	14752201	-1.663650	-1.354520	5.365003	0.215172	-3.914801	1.349461	-0.004219	-0.003397	0.013391
09739	14752226	-1.769779	-1.587809	5.168473	0.273151	-3.928861	1.328023	-0.004481	-0.003981	0.012898
09742	14752251	-1.840128	-1.744336	5.078837	0.332379	-3.935000	1.304345	-0.004656	-0.004374	0.012672
09743	14752276	-1.913629	-1.840888	5.122354	0.390712	-3.946745	1.281155	-0.004840	-0.004616	0.012780
09744	14752301	-2.018962	-1.911717	5.296368	0.454455	-3.959786	1.256264	-0.005105	-0.004795	0.013213
09745	14752326	-2.040047	-1.957768	5.469294	0.500058	-3.967048	1.232144	-0.005160	-0.004911	0.013645
09746	14752351	-2.107476	-1.796998	5.884748	0.549124	-3.956716	1.186793	-0.005335	-0.004510	0.014683
09747	14752376	-2.349896	-1.731676	6.460881	0.605947	-3.944826	1.161189	-0.005948	-0.004350	0.016120
09748	14752401	-2.548283	-1.663507	6.997238	0.637704	-3.943990	1.141753	-0.006451	-0.004182	0.017458
09749	14752426	-2.738744	-1.643913	7.645141	0.647035	-3.928673	1.125648	-0.006935	-0.004135	0.019076
09750	14752451	-2.979855	-1.547024	8.248003	0.650357	-3.927274	1.110656	-0.007545	-0.003895	0.020580
09751	14752476	-3.306408	-1.441690	8.796328	0.650585	-3.924965	1.105629	-0.008369	-0.003634	0.021947
09752	14752501	-3.630380	-1.320244	9.453819	0.659686	-3.932935	1.090037	-0.009187	-0.003333	0.023587
09753	14752526	-3.960849	-1.148855	10.013146	0.650579	-3.944869	1.081747	-0.010021	-0.002906	0.024981
09754	14752551	-4.266485	-0.984192	10.529687	0.629271	-3.974234	1.071461	-0.010793	-0.002496	0.026269
09755	14752576	-4.569173	-0.877121	10.992994	0.609584	-4.018483	1.058361	-0.011558	-0.002229	0.027423
09756	14752601	-4.804216	-0.799905	11.347005	0.584920	-4.065446	1.052145	-0.012152	-0.002036	0.028305
09757	14752626	-5.007846	-0.762802	11.743562	0.571926	-4.104936	1.040684	-0.012668	-0.001944	0.029293
09758	14752651	-5.230705	-0.746505	12.174560	0.569703	-4.152193	1.038182	-0.013232	-0.001905	0.030367
09759	14752676	-5.461668	-0.692742	12.528535	0.556430	-4.205687	1.035476	-0.013816	-0.001771	0.031248
09760	14752701	-5.726931	-0.634677	12.834534	0.532003	-4.263299	1.042756	-0.014486	-0.001627	0.032008
09761	14752726	-5.939449	-0.646171	13.000879	0.511147	-4.322581	1.044526	-0.015022	-0.001656	0.032420
09762	14752751	-6.070911	-0.642605	13.157722	0.505829	-4.366245	1.053279	-0.015354	-0.001647	0.032810
09763	14752776	-6.235248	-0.649976	13.301318	0.508995	-4.396488	1.056963	-0.015768	-0.001667	0.033166
09764	14752801	-6.374663	-0.676517	13.388967	0.500750	-4.440365	1.064339	-0.016120	-0.001734	0.033382
09765	14752826	-6.566045	-0.696971	13.378153	0.477157	-4.485358	1.071405	-0.016600	-0.001784	0.033352
09766	14752851	-6.709285	-0.773632	13.278051	0.479910	-4.532427	1.073277	-0.016958	-0.001977	0.033098
09767	14752876	-6.872230	-0.845196	13.271024	0.490314	-4.577683	1.082766	-0.017367	-0.002157	0.033077
09768	14752901	-7.024102	-0.899149	13.357282	0.495875	-4.625197	1.084282	-0.017750	-0.002292	0.033290
09769	14752926	-7.129024	-0.941977	13.414305	0.502211	-4.670805	1.098826	-0.018015	-0.002401	0.033429
09770	14752951	-7.227053	-0.986143	13.446059	0.503476	-4.711471	1.114308	-0.018262	-0.002512	0.033506
09771	14752976	-7.316588	-0.991628	13.443335	0.510110	-4.748389	1.126907	-0.018487	-0.002526	0.033497
09772	14753001	-7.411750	-1.041038	13.421768	0.519334	-4.781797	1.143093	-0.018726	-0.002651	0.033441
09773	14753026	-7.493121	-1.067257	13.420332	0.519093	-4.806142	1.160480	-0.018930	-0.002717	0.033436
09774	14753051	-7.572872	-1.036744	13.373772	0.519248	-4.838740	1.174532	-0.019130	-0.002641	0.033317
09775	14753076	-7.645757	-1.044754	13.302001	0.512614	-4.857690	1.181670	-0.019312	-0.002662	0.033136
09776	14753101	-7.631767	-0.974340	13.254275	0.500936	-4.880708	1.193735	-0.019277	-0.002485	0.033017
09777	14753126	-7.649478	-0.968528	13.167838	0.481804	-4.892367	1.205782	-0.019321	-0.002470	0.032800
09778	14753151	-7.621527	-0.924116	13.065613	0.454888	-4.906865	1.224539	-0.019250	-0.002358	0.032545
09779	14753176	-7.597865	-0.865956	12.957957	0.424434	-4.916856	1.232997	-0.019190	-0.002212	0.032276
09780	14753201	-7.610118	-0.860220	12.906054	0.391890	-4.916978	1.238435	-0.019220	-0.002196	0.032146
09781	14753226	-7.576715	-0.817256	12.826397	0.357793	-4.920701	1.239678	-0.019135	-0.002087	0.031948
09782	14753251	-7.610972	-0.774335	12.746633	0.321860	-4.916970	1.253272	-0.019220	-0.001979	0.031748
09783	14753276	-7.627308	-0.728559	12.666942	0.286058	-4.915899	1.258195	-0.019259	-0.001863	0.031549
09784	14753301	-7.614783	-0.703658	12.623158	0.241251	-4.902615	1.260690	-0.019227	-0.001799	0.031440
09785	14753326	-7.660242	-0.744892	12.618952	0.203630	-4.889458	1.259221	-0.019340	-0.001901	0.031429
09786	14753351	-7.691899	-0.768159	12.561596	0.167641	-4.875354	1.266774	-0.019418	-0.001958	0.031286
09787	14753376	-7.723566	-0.843607	12.509493	0.127486	-4.861402	1.267777	-0.019495	-0.002145	0.031155
09788	14753401	-7.741446	-0.876485	12.476047	0.093745	-4.838899	1.258752	-0.019538	-0.002226	0.031072
09789	14753426	-7.749605	-0.884487	12.417567	0.076180	-4.819285	1.256408	-0.019557	-0.002245	0.030926
09790	14753451	-7.748147	-0.927022	12.368197	0.049639	-4.791609	1.256905	-0.019551	-0.002350	0.030804
09791	14753476	-7.768475	-0.863345	12.273830	0.027792	-4.762723	1.253900	-0.019600	-0.002190	0.030568
09792	14753501	-7.805359	-0.822993	12.155509	0.006875	-4.727955	1.243760	-0.019689	-0.002088	0.030273
09793	14753526	-7.905648	-0.767472	12.051870	-0.011979	-4.685879	1.233377	-0.019937	-0.001949	0.030013
09794	14753551	-7.952196	-0.668098	11.965709	-0.026551	-4.641333	1.227707	-0.020051	-0.001700	0.029798
09795	14753576	-7.989296	-0.601766	11.909968	-0.041120	-4.591637	1.208283	-0.020141	-0.001533	0.029660
09796	14753601	-8.018105	-0.495862	11.924983	-0.065342	-4.541493	1.188273	-0.020212	-0.001267	0.029698
09797	14753626	-8.030721	-0.471203	11.978316	-0.084398	-4.486956	1.170827	-0.020243	-0.001204	0.029833
09798	14753651	-8.041924	-0.412529	12.103494	-0.110280	-4.429809	1.154243	-0.020270	-0.001056	0.030147
09799	14753676	-8.156692	-0.318058	12.232691	-0.125594	-4.375690	1.127470	-0.020557	-0.000819	0.030470
09800	14753701	-8.300590	-0.321727	12.480177	-0.144606	-4.328937	1.101492	-0.020919	-0.000827	0.031088
09801	14753726	-8.448880	-0.258059	12.774226	-0.162437	-4.272388	1.071666	-0.021291	-0.000667	0.031822
09802	14753751	-8.637382	-0.267956	13.206548	-0.164055	-4.221952	1.036613	-0.021766	-0.000691	0.032902
09803	14753776	-8.922554	-0.284800	13.677291	-0.168020	-4.182011	1.004373	-0.022484	-0.000733	0.034076
09804	14753801	-9.230060	-0.281395	14.261243	-0.160035	-4.146116	0.972439	-0.023259	-0.000725	0.035533
09805	14753826	-9.554079	-0.261624	14.863770	-0.149811	-4.122199	0.937687	-0.024075	-0.000675	0.037036
09806	14753851	-9.948409	-0.273575	15.507539	-0.130763	-4.111285	0.907789	-0.025069	-0.000706	0.038640
09807	14753876	-10.327674	-0.300457	16.104603	-0.102634	-4.106181	0.882528	-0.026025	-0.000775	0.040128
09808	14753901	-10.748396	-0.313950	16.784252	-0.066431	-4.111305	0.849585	-0.027085	-0.000810	0.041822
09809	14753926	-11.149534	-0.237831	17.442980	-0.010318	-4.123753	0.818118	-0.028097	-0.000623	0.043463
09810	14753951	-11.525905	-0.153500	18.080337	0.043690	-4.149732	0.789124	-0.029048	-0.000415	0.045051
09811	14753976	-11.926953	-0.056660	18.712469	0.090416	-4.182290	0.766232	-0.030061	-0.000176	0.046624
09812	14754001	-12.357923	0.084595	19.231618	0.128677	-4.230128	0.739070	-0.031149	0.000175	0.047915
09813	14754026	-12.776139	0.230490	19.619100	0.157198	-4.283524	0.722550	-0.032203	0.000538	0.048876
09814	14754051	-13.053212	0.346838	19.783128	0.182211	-4.336448	0.699601	-0.032901	0.000827	0.049280
09815	14754076	-13.234451	0.548073	19.701235	0.183701	-4.389900	0.680981	-0.033357	0.001331	0.049071
09816	14754101	-13.286747	0.760104	19.321474	0.159750	-4.441787	0.651299	-0.033486	0.001863	0.048119
09817	14754126	-13.287693	0.895830	18.743252	0.136634	-4.492804	0.628877	-0.033483	0.002205	0.046671
09818	14754151	-13.102231	0.935903	17.983887	0.113899	-4.535620	0.609732	-0.033012	0.002308	0.044773
09819	14754176	-12.847733	0.939449	17.053926	0.103455	-4.562447	0.596564	-0.032364	0.002319	0.042451
09820	14754201	-12.537687	1.007997	16.035173	0.119433	-4.581550	0.582965	-0.031575	0.002491	0.039908
09821	14754226	-12.234868	1.076347	15.053485	0.141726	-4.583625	0.569092	-0.030804	0.002662	0.037458
09822	14754251	-12.000922	1.187138	14.117190	0.159340	-4.567346	0.562272	-0.030205	0.002940	0.035122
09823	14754276	-11.860902	1.314228	13.270003	0.175936	-4.536902	0.553569	-0.029842	0.003258	0.033007
09824	14754301	-11.818835	1.463044	12.481453	0.183625	-4.502426	0.559840	-0.029725	0.003630	0.031038
09825	14754326	-11.746626	1.604750	11.780825	0.185833	-4.454454	0.580719	-0.029533	0.003984	0.029289
09826	14754351	-11.732679	1.659376	11.160828	0.174078	-4.401107	0.613234	-0.029488	0.004120	0.027741
09827	14754376	-11.865037	1.764704	10.634144	0.157059	-4.344888	0.679875	-0.029810	0.004381	0.026425
09828	14754401	-11.964248	1.906952	10.138350	0.144153	-4.282756	0.745039	-0.030050	0.004735	0.025186
09829	14754426	-12.037344	2.093117	9.702436	0.130247	-4.222804	0.812004	-0.030226	0.005198	0.024098
09830	14754451	-12.203086	2.102964	9.245758	0.109570	-4.155164	0.885857	-0.030633	0.005220	0.022956
09831	14754476	-12.325890	2.415374	8.954246	0.108691	-4.080334	0.936605	-0.030935	0.005999	0.022229
09832	14754501	-12.665646	2.521461	8.516250	0.122272	-3.995473	0.948620	-0.031777	0.006263	0.021133
09833	14754526	-13.135732	2.839064	8.297377	0.184009	-3.900574	0.937889	-0.032948	0.007054	0.020585
09834	14754551	-13.582776	2.840552	7.911370	0.248476	-3.802808	0.933900	-0.034059	0.007056	0.019619
09835	14754576	-13.881332	2.860658	7.721187	0.298574	-3.715473	0.938751	-0.034801	0.007104	0.019144
09836	14754601	-14.048949	2.871151	7.509625	0.325484	-3.636487	0.951525	-0.035216	0.007128	0.018617
09837	14754626	-14.114511	2.876164	7.283446	0.345099	-3.551596	0.982126	-0.035375	0.007139	0.018055
09838	14754651	-14.225673	2.822115	7.019764	0.351371	-3.465053	1.016067	-0.035649	0.007002	0.017398
09839	14754676	-14.329658	2.867096	6.766899	0.334866	-3.370350	1.065390	-0.035904	0.007113	0.016769
09840	14754701	-14.502374	2.905611	6.438332	0.303412	-3.264011	1.123047	-0.036331	0.007207	0.015950
09841	14754726	-14.723270	2.854944	6.000258	0.250354	-3.162899	1.188395	-0.036878	0.007078	0.014857
09844	14754751	-14.901150	2.844514	5.517153	0.186217	-3.053842	1.255318	-0.037316	0.007050	0.013652
09845	14754776	-15.071998	2.744969	4.884630	0.124891	-2.938547	1.322854	-0.037736	0.006798	0.012074
09846	14754801	-15.261966	2.572970	4.138841	0.062896	-2.817091	1.384703	-0.038202	0.006366	0.010213
09847	14754826	-15.357254	2.283715	3.468477	0.039891	-2.678667	1.431671	-0.038432	0.005640	0.008543
09848	14754851	-15.677299	1.727608	2.717219	0.013492	-2.529804	1.458589	-0.039222	0.004247	0.006669
09849	14754876	-15.779315	1.527770	2.099132	0.048146	-2.367430	1.474863	-0.039471	0.003746	0.005131
09850	14754901	-16.223350	0.812539	1.206112	0.135061	-2.190307	1.487249	-0.040570	0.001955	0.002905
09851	14754926	-16.844269	0.377276	0.562831	0.187789	-1.985257	1.482762	-0.042116	0.000865	0.001303
09852	14754951	-17.621850	-0.127786	-0.153912	0.268942	-1.752241	1.491884	-0.044053	-0.000401	-0.000481
09853	14754976	-18.118739	-0.817551	-0.431710	0.385832	-1.503146	1.490887	-0.045291	-0.002128	-0.001165
09854	14755001	-17.995523	-0.971248	-0.224385	0.542904	-1.260166	1.461278	-0.044983	-0.002510	-0.000634
09855	14755026	-18.146493	-1.081655	-0.503030	0.680151	-1.037864	1.419477	-0.045360	-0.002784	-0.001319
09856	14755051	-18.387551	-1.004296	-0.589303	0.755753	-0.810958	1.379887	-0.045963	-0.002589	-0.001522
09857	14755076	-18.762840	-1.020033	-0.411340	0.849270	-0.596819	1.344198	-0.046902	-0.002628	-0.001066
09858	14755101	-19.297103	-1.018306	-0.120106	0.922396	-0.402207	1.302845	-0.048238	-0.002624	-0.000328
09859	14755126	-19.827093	-0.825580	0.280863	0.970390	-0.235358	1.282963	-0.049565	-0.002144	0.000685
09860	14755151	-20.366657	-0.673943	0.621699	0.965684	-0.088474	1.270578	-0.050914	-0.001768	0.001547
09861	14755176	-20.784292	-0.462196	0.748624	0.904793	0.036420	1.267404	-0.051959	-0.001240	0.001873
09862	14755201	-21.079787	-0.386618	0.457218	0.822645	0.164256	1.276024	-0.052698	-0.001052	0.001153
09863	14755226	-21.074416	-0.359900	-0.027039	0.738198	0.298368	1.281189	-0.052685	-0.000984	-0.000049
09864	14755251	-20.868878	-0.360442	-0.648296	0.665614	0.431709	1.269380	-0.052172	-0.000983	-0.001593
09865	14755276	-20.612074	-0.382437	-1.399997	0.588478	0.569861	1.246522	-0.051531	-0.001034	-0.003464
09866	14755301	-20.426986	-0.449942	-2.134587	0.529236	0.707590	1.214033	-0.051070	-0.001199	-0.005292
09867	14755326	-20.130472	-0.708555	-2.922988	0.455612	0.849955	1.175312	-0.050331	-0.001841	-0.007255
09868	14755351	-19.863993	-0.874878	-3.735037	0.378981	0.996394	1.133489	-0.049668	-0.002253	-0.009277
09869	14755376	-19.635342	-1.246785	-4.424028	0.301963	1.143324	1.091226	-0.049100	-0.003180	-0.010991
09870	14755401	-19.327983	-1.634716	-5.255363	0.291743	1.288175	1.036557	-0.048336	-0.004145	-0.013062
09871	14755426	-19.162299	-2.216352	-6.157984	0.359205	1.429231	0.975687	-0.047926	-0.005592	-0.015312
09872	14755451	-18.901329	-2.299845	-5.881132	0.294283	1.538917	0.921937	-0.047275	-0.005799	-0.014614
09873	14755476	-18.876902	-2.531438	-5.850914	0.249301	1.586984	0.891607	-0.047214	-0.006377	-0.014536
09874	14755501	-18.977453	-3.089177	-5.730530	0.177248	1.613352	0.849592	-0.047464	-0.007770	-0.014232
09875	14755526	-18.907518	-3.510377	-5.803306	0.243373	1.596942	0.806159	-0.047289	-0.008819	-0.014417
09876	14755551	-19.012717	-3.822168	-5.177855	0.192237	1.542192	0.750819	-0.047548	-0.009597	-0.012855
09877	14755576	-18.788417	-3.499235	-4.342125	0.086691	1.441694	0.717691	-0.046983	-0.008789	-0.010772
09878	14755601	-18.961038	-4.003275	-3.922149	0.025454	1.330913	0.669067	-0.047410	-0.010048	-0.009727
09879	14755626	-18.694154	-3.725985	-3.002953	-0.024012	1.221233	0.598477	-0.046740	-0.009350	-0.007436
09880	14755651	-18.580235	-3.800483	-2.244855	-0.020404	1.115294	0.524861	-0.046452	-0.009532	-0.005547
09881	14755676	-18.224566	-3.562915	-1.021094	-0.077945	1.027193	0.453350	-0.045560	-0.008933	-0.002493
09882	14755701	-17.923260	-3.535663	-0.219968	-0.085786	0.956695	0.402922	-0.044804	-0.008862	-0.000495
09883	14755726	-17.582792	-3.474008	0.940623	-0.078638	0.913255	0.336023	-0.043951	-0.008703	0.002403
09884	14755751	-17.226760	-3.208483	2.042034	-0.058278	0.894000	0.270765	-0.043058	-0.008035	0.005154
09885	14755776	-16.905193	-2.163994	2.873237	-0.021967	0.884369	0.216769	-0.042254	-0.005421	0.007230
09886	14755801	-20.444199	14.718353	-18.505631	-0.596220	1.497113	0.792748	-0.051233	0.036711	-0.046196
09887	14755826	10.617547	5.409674	-26.238844	-3.618167	2.930398	1.331758	0.026281	0.013271	-0.065754
09888	14755851	10.424326	1.625662	5.099890	-3.350352	2.653473	0.623900	0.026100	0.004138	0.012646
09889	14755876	-5.233338	-1.490082	16.547446	-1.653539	1.546007	-0.349465	-0.013005	-0.003634	0.041401
09890	14755901	-13.019822	4.650991	10.235870	-1.527722	1.113264	-0.721007	-0.032503	0.011706	0.025613
09891	14755926	-7.665872	5.772647	10.272292	-2.548936	0.952161	-0.758053	-0.019120	0.014532	0.025657
09892	14755951	-1.033337	6.022084	12.063095	-3.617836	0.548770	-0.894726	-0.002546	0.015194	0.030091
09893	14755976	4.266523	6.744088	8.362774	-4.244860	0.129532	-1.055681	0.010692	0.016957	0.020815
09894	14756001	8.721389	7.119492	1.073938	-4.136064	0.038085	-1.024178	0.021826	0.017784	0.002592
09895	14756026	10.546930	4.074953	-1.173666	-3.337812	0.152790	-0.906765	0.026378	0.010145	-0.002982
09896	14756051	13.476108	-0.251374	1.112585	-2.561732	0.110455	-0.928414	0.033690	-0.000659	0.002779
09897	14756076	11.644293	-4.600957	-2.636814	-1.195788	0.764228	-1.128548	0.029088	-0.011553	-0.006603
09898	14756101	10.986957	-10.700186	0.017448	0.745042	3.224481	-0.692902	0.027444	-0.026774	-0.000092
09899	14756126	19.603383	-17.038099	16.564913	0.068814	5.328826	0.129005	0.049290	-0.042591	0.041081
09900	14756151	10.806319	-15.717923	10.825091	-1.803296	5.737170	0.257572	0.027222	-0.039225	0.026956
09901	14756176	-0.221855	-15.740184	-6.108397	-1.942110	6.088726	0.158562	-0.000663	-0.039387	-0.015171
09902	14756201	-7.433129	-20.285199	-5.378994	-1.038708	6.479064	-0.263634	-0.018707	-0.050724	-0.013230
09903	14756226	-11.116737	-18.934797	7.150385	-0.621212	6.172724	-0.750843	-0.027697	-0.047297	0.018127
09904	14756251	-15.118126	-14.585455	14.252304	-0.525288	5.475275	-0.932847	-0.037593	-0.036396	0.035912
09905	14756276	-17.919395	-12.197771	20.878683	-0.307659	4.871065	-0.856621	-0.044512	-0.030427	0.052480
09906	14756301	-18.162111	-10.900384	25.917789	-0.073077	4.402906	-0.671159	-0.045071	-0.027207	0.065046
09907	14756326	-17.635963	-10.553669	28.499231	0.057055	4.110103	-0.483160	-0.043739	-0.026363	0.071472
09908	14756351	-18.481680	-7.827603	30.017092	0.282444	4.011603	-0.275294	-0.045834	-0.019580	0.075266
09909	14756376	-18.866504	-4.944396	32.065103	0.380877	3.849730	-0.122214	-0.046782	-0.012392	0.080383
09910	14756401	-16.957827	-1.916835	28.858219	0.116325	3.589981	-0.060149	-0.042071	-0.004799	0.072334
09911	14756426	-13.496543	-0.646975	22.210647	-0.112898	3.447783	-0.046025	-0.033502	-0.001608	0.055672
09912	14756451	-9.887557	0.690012	16.551595	-0.113228	3.455034	-0.106874	-0.024540	0.001734	0.041485
09913	14756476	-6.867751	1.970155	13.133736	-0.089649	3.457239	-0.130281	-0.017026	0.004932	0.032908
09914	14756501	-4.234675	3.044042	11.587136	-0.033194	3.385744	-0.078108	-0.010463	0.007612	0.029012
09915	14756526	-2.328198	3.738293	10.624646	0.114495	3.336700	0.010920	-0.005710	0.009342	0.026587
09916	14756551	-1.933708	4.363488	12.332848	0.231294	3.294203	0.138846	-0.004709	0.010899	0.030855
09917	14756576	-2.265510	5.354421	14.483876	0.344425	3.244001	0.289083	-0.005522	0.013368	0.036238
09918	14756601	-6.090801	5.227281	18.839663	0.182774	3.254076	0.428861	-0.015042	0.013049	0.047164
09919	14756626	-10.424110	5.021161	23.453683	0.012848	3.126700	0.433734	-0.025838	0.012538	0.058736
09920	14756651	-12.586861	4.705752	23.062871	-0.229218	2.993515	0.351321	-0.031256	0.011767	0.057771
09921	14756676	-12.702991	3.922136	21.611389	-0.457423	2.907965	0.252617	-0.031564	0.009826	0.054138
09922	14756701	-11.703630	2.831729	19.493827	-0.512880	2.776557	0.170882	-0.029091	0.007104	0.048831
09923	14756726	-9.001666	3.832617	18.294928	-0.504323	2.638270	0.171982	-0.022355	0.009606	0.045805
09924	14756751	-8.962188	7.079509	20.072614	-0.405667	2.436445	0.409075	-0.022262	0.017713	0.050241
09925	14756776	-15.860878	5.037743	27.586625	-0.565461	2.253822	0.564727	-0.039467	0.012615	0.069069
09926	14756801	-17.685437	5.207060	28.584294	-0.421520	1.866405	0.503713	-0.044055	0.013028	0.071557
09927	14756826	-14.394936	6.198337	24.637244	-0.857990	1.566793	0.395035	-0.035874	0.015544	0.061647
09928	14756851	-12.408653	5.097820	22.326341	-1.522154	1.337625	0.224716	-0.030932	0.012842	0.055843
09929	14756876	-10.050016	2.114611	21.054589	-1.987244	1.138863	0.084576	-0.025051	0.005415	0.052659
09930	14756901	-6.337963	-1.750793	17.780120	-2.401224	0.975764	0.040449	-0.015790	-0.004244	0.044482
09931	14756926	-3.669127	-4.725614	13.423417	-2.500423	0.964594	-0.003767	-0.009132	-0.011709	0.033606
09932	14756951	-3.344883	-7.095540	9.144810	-1.841388	1.090057	-0.044715	-0.008332	-0.017686	0.022914
09933	14756976	-3.898185	-9.615320	8.592943	-0.870114	1.190036	-0.188734	-0.009719	-0.024013	0.021523
09934	14757001	-5.119686	-8.474190	10.710817	-0.151007	1.087369	-0.379402	-0.012773	-0.021174	0.026798
09935	14757026	-5.571700	-6.070073	12.448553	0.143573	0.864673	-0.412351	-0.013903	-0.015174	0.031134
09936	14757051	-4.525463	-3.853821	12.957641	0.064161	0.675798	-0.252414	-0.011289	-0.009634	0.032403
09937	14757076	-3.327708	-2.288696	13.241546	-0.160156	0.574838	0.023532	-0.008295	-0.005715	0.033111
09938	14757101	-2.696382	-1.945678	13.992454	-0.300206	0.543340	0.263220	-0.006716	-0.004853	0.034988
09939	14757126	-5.070175	-0.703388	14.801713	-0.152718	0.542566	0.337324	-0.012650	-0.001757	0.037013
09940	14757151	-6.330196	-0.118210	15.350950	0.005133	0.500737	0.292707	-0.015801	-0.000302	0.038387
09941	14757176	-5.973242	1.070477	14.925294	-0.139132	0.390992	0.201169	-0.014916	0.002679	0.037320
09942	14757201	-4.667939	1.742753	13.583092	-0.458412	0.301828	0.167948	-0.011658	0.004374	0.033960
09943	14757226	-2.832613	1.444901	11.909240	-0.726098	0.296871	0.134192	-0.007071	0.003638	0.029772
09946	14757251	-1.796827	0.740593	10.055458	-0.745210	0.352755	0.104858	-0.004481	0.001874	0.025139
09947	14757276	-1.710448	-0.002905	8.721106	-0.574225	0.448075	0.041801	-0.004264	0.000008	0.021805
09948	14757301	-2.134747	-0.359838	8.501541	-0.400887	0.510323	-0.024652	-0.005323	-0.000889	0.021258
09949	14757326	-3.199998	-0.532775	9.524973	-0.275660	0.501405	-0.064315	-0.007985	-0.001323	0.023818
09950	14757351	-3.930973	-1.153762	11.048612	-0.191718	0.422780	-0.094593	-0.009813	-0.002877	0.027627
09951	14757376	-4.139366	-1.373175	11.530657	-0.139967	0.323427	-0.110751	-0.010337	-0.003426	0.028831
09952	14757401	-3.477207	-1.401246	11.234137	-0.143892	0.265297	-0.097495	-0.008684	-0.003497	0.028089
09953	14757426	-2.560468	-1.203992	10.695073	-0.220774	0.251202	-0.048614	-0.006393	-0.003002	0.026741
09954	14757451	-1.956421	-0.848322	10.184368	-0.274316	0.275414	0.015101	-0.004882	-0.002112	0.025463
09955	14757476	-1.974103	-0.604048	9.687596	-0.270219	0.309354	0.054766	-0.004926	-0.001502	0.024221
09956	14757501	-2.227820	-0.327365	9.343744	-0.199187	0.343557	0.041896	-0.005559	-0.000813	0.023362
09957	14757526	-2.433775	0.107695	9.313148	-0.146315	0.351742	0.017647	-0.006074	0.000273	0.023285
09958	14757551	-2.595210	0.340887	9.517414	-0.143011	0.349833	0.005221	-0.006478	0.000856	0.023796
09959	14757576	-2.569542	0.157392	9.615258	-0.168824	0.353159	-0.010240	-0.006413	0.000399	0.024041
09960	14757601	-2.499477	0.195628	9.729840	-0.174356	0.356972	-0.029249	-0.006238	0.000495	0.024327
09961	14757626	-2.491624	-0.249939	9.609976	-0.145917	0.373578	-0.034043	-0.006218	-0.000620	0.024028
09962	14757651	-2.630366	0.002098	9.602757	-0.111938	0.389859	-0.039245	-0.006564	0.000009	0.024010
09963	14757676	-2.863713	-0.023307	9.747570	-0.082780	0.394528	-0.040086	-0.007147	-0.000055	0.024372
09964	14757701	-2.880977	-0.189301	9.967868	-0.094275	0.388618	-0.043616	-0.007190	-0.000470	0.024923
09965	14757726	-3.074410	-0.292804	10.068554	-0.071234	0.368929	-0.044809	-0.007674	-0.000729	0.025175
09966	14757751	-3.067785	-0.433351	10.094659	-0.060490	0.359018	-0.036015	-0.007658	-0.001081	0.025240
09967	14757776	-2.895022	-0.185503	10.054360	-0.060280	0.351012	-0.028175	-0.007227	-0.000462	0.025139
09968	14757801	-2.872757	-0.215383	9.942504	-0.077417	0.349255	0.006786	-0.007171	-0.000536	0.024859
09969	14757826	-2.690710	-0.193306	9.949280	-0.075860	0.345331	0.017695	-0.006716	-0.000481	0.024876
09970	14757851	-3.039038	-0.647369	9.487221	-0.044927	0.331886	0.034268	-0.007588	-0.001617	0.023721
09971	14757876	-2.956404	-0.398174	10.238523	-0.081354	0.343934	0.021395	-0.007380	-0.000993	0.025600
09972	14757901	-2.822329	-0.383707	10.055077	-0.063749	0.343214	0.016971	-0.007045	-0.000957	0.025141
09973	14757926	-2.693327	-0.544515	9.640798	-0.036779	0.355132	0.010604	-0.006723	-0.001360	0.024105
09974	14757951	-2.610193	-0.913369	9.244440	0.007419	0.361623	-0.002308	-0.006515	-0.002284	0.023114
09975	14757976	-2.371408	-0.636813	9.278784	0.034682	0.378360	-0.008160	-0.005918	-0.001593	0.023200
09976	14758001	-2.385894	-0.597232	9.016794	0.108233	0.385377	-0.017099	-0.005954	-0.001496	0.022545
09977	14758026	-2.592574	-0.510756	9.068862	0.168358	0.389400	-0.036471	-0.006470	-0.001281	0.022675
09978	14758051	-2.591297	-0.134770	9.342845	0.179292	0.386617	-0.040376	-0.006467	-0.000342	0.023360
09979	14758076	-2.246814	-0.104740	9.385705	0.126007	0.364959	-0.026685	-0.005606	-0.000265	0.023467
09980	14758101	-2.150697	-0.665431	9.173685	0.115165	0.371020	-0.027339	-0.005366	-0.001667	0.022936
09981	14758126	-2.107695	-0.776178	8.989729	0.144222	0.408374	-0.045414	-0.005258	-0.001944	0.022477
09982	14758151	-2.004798	-0.590842	8.750926	0.214860	0.440422	-0.064713	-0.005000	-0.001483	0.021880
09983	14758176	-1.956726	-0.245870	8.485984	0.238182	0.450330	-0.082983	-0.004880	-0.000620	0.021218
09984	14758201	-1.854497	-0.093129	8.491858	0.224589	0.443381	-0.088896	-0.004625	-0.000238	0.021232
09985	14758226	-1.799624	-0.060497	8.603763	0.205332	0.442660	-0.072339	-0.004487	-0.000156	0.021512
09986	14758251	-1.878706	-0.256225	8.686912	0.217953	0.462291	-0.067259	-0.004684	-0.000646	0.021720
09987	14758276	-2.062537	-0.193845	8.930496	0.219020	0.491950	-0.078796	-0.005143	-0.000490	0.022329
09988	14758301	-2.225205	0.109670	9.127014	0.216343	0.504813	-0.095603	-0.005549	0.000269	0.022821
09989	14758326	-2.277241	0.438317	9.199933	0.200178	0.511991	-0.094232	-0.005678	0.001091	0.023004
09990	14758351	-2.411016	0.701896	9.381655	0.152400	0.511108	-0.085852	-0.006012	0.001751	0.023458
09991	14758376	-2.379679	0.732962	9.545440	0.090674	0.505890	-0.065999	-0.005934	0.001830	0.023868
09992	14758401	-2.289968	0.650832	9.421455	0.037867	0.515188	-0.065355	-0.005710	0.001626	0.023557
09993	14758426	-2.241706	0.547880	9.351989	-0.004330	0.532976	-0.073585	-0.005589	0.001370	0.023384
09994	14758451	-2.826802	0.549694	9.655042	-0.002967	0.555967	-0.094026	-0.007050	0.001375	0.024143
09995	14758476	-3.267316	0.431820	9.899195	0.014167	0.564680	-0.122891	-0.008151	0.001080	0.024754
09996	14758501	-3.397799	0.630221	9.845212	0.017324	0.565167	-0.159156	-0.008477	0.001577	0.024619
09997	14758526	-3.233642	0.677081	9.804166	-0.009669	0.561512	-0.185762	-0.008067	0.001695	0.024516
09998	14758551	-3.042962	0.622977	9.572612	-0.017759	0.565709	-0.224681	-0.007590	0.001560	0.023937
09999	14758576	-3.123991	0.477935	9.356534	0.001347	0.586970	-0.246705	-0.007792	0.001197	0.023397
10000	14758601	-3.220515	-0.054454	9.651461	0.040181	0.608058	-0.286408	-0.008033	-0.000134	0.024135
10001	14758626	-3.587852	-0.158307	9.854474	0.122403	0.614382	-0.337346	-0.008951	-0.000396	0.024643
10002	14758651	-3.418505	-0.260428	9.867458	0.171109	0.626743	-0.386575	-0.008527	-0.000652	0.024675
10003	14758676	-3.179702	-0.163864	9.802790	0.182496	0.626411	-0.423636	-0.007930	-0.000411	0.024513
10004	14758701	-3.020911	-0.164700	9.663110	0.196670	0.634094	-0.443673	-0.007533	-0.000414	0.024164
10005	14758726	-2.699061	-0.077261	9.442733	0.210817	0.645578	-0.443991	-0.006729	-0.000196	0.023612
10006	14758751	-2.693338	0.019179	9.429828	0.211997	0.664577	-0.431980	-0.006714	0.000045	0.023580
10007	14758776	-3.445827	0.075033	10.016440	0.213330	0.679006	-0.403054	-0.008593	0.000185	0.025048
10008	14758801	-4.046954	-0.096336	10.544966	0.212225	0.673196	-0.385688	-0.010095	-0.000243	0.026371
10009	14758826	-3.633145	-0.039616	10.402928	0.145829	0.655233	-0.371587	-0.009062	-0.000100	0.026015
10010	14758851	-3.138668	0.008783	9.986918	0.070271	0.659007	-0.347890	-0.007826	0.000023	0.024974
10011	14758876	-2.866532	-0.201641	9.599239	0.049688	0.693324	-0.323047	-0.007146	-0.000503	0.024004
10012	14758901	-2.965564	-0.403245	9.426872	0.073124	0.746708	-0.301145	-0.007392	-0.001007	0.023574
10013	14758926	-3.332251	-0.563414	9.949141	0.132675	0.791230	-0.289597	-0.008307	-0.001410	0.024881
10014	14758951	-3.645925	-0.523491	10.288284	0.162412	0.816707	-0.280003	-0.009089	-0.001311	0.025730
10015	14758976	-3.440187	-0.263469	10.278590	0.120422	0.832635	-0.263114	-0.008574	-0.000660	0.025705
10016	14759001	-3.281580	-0.374495	10.155902	0.056735	0.847201	-0.229713	-0.008177	-0.000936	0.025398
10017	14759026	-3.241037	-0.399449	9.869803	0.031933	0.878096	-0.217554	-0.008076	-0.000997	0.024683
10018	14759051	-3.309591	-0.511565	9.684457	0.049253	0.925528	-0.205576	-0.008246	-0.001278	0.024221
10019	14759076	-3.298280	-0.303842	9.717059	0.080618	0.968260	-0.190724	-0.008216	-0.000760	0.024303
10020	14759101	-3.139359	-0.153572	9.615153	0.072818	1.008723	-0.172025	-0.007818	-0.000384	0.024048
10021	14759126	-3.056593	-0.213994	9.573847	0.039037	1.041508	-0.165123	-0.007610	-0.000535	0.023945
10022	14759151	-3.225777	-0.125369	9.467585	0.030498	1.072438	-0.168987	-0.008033	-0.000313	0.023680
10023	14759176	-3.246252	-0.226710	9.335455	0.057940	1.106567	-0.175373	-0.008083	-0.000567	0.023350
10024	14759201	-2.986438	-0.062300	9.139226	0.081342	1.131148	-0.192456	-0.007434	-0.000156	0.022859
10025	14759226	-2.853834	-0.162236	8.992678	0.076313	1.162447	-0.205533	-0.007102	-0.000406	0.022492
10026	14759251	-3.110229	-0.169024	9.003206	0.104614	1.181281	-0.232440	-0.007742	-0.000423	0.022519
10027	14759276	-3.391548	-0.240660	9.024061	0.147469	1.197200	-0.242700	-0.008445	-0.000603	0.022573
10028	14759301	-3.420659	-0.116106	9.193384	0.161037	1.196452	-0.257166	-0.008517	-0.000292	0.022996
10029	14759326	-3.335058	-0.033407	9.152478	0.143926	1.185711	-0.259720	-0.008304	-0.000085	0.022894
10030	14759351	-3.412122	-0.112800	9.057746	0.117771	1.171458	-0.252918	-0.008497	-0.000283	0.022657
10031	14759376	-3.556997	-0.248881	9.031922	0.139062	1.154529	-0.259137	-0.008860	-0.000623	0.022592
10032	14759401	-3.540120	-0.219813	8.960155	0.155692	1.141820	-0.255354	-0.008818	-0.000551	0.022413
10033	14759426	-3.645012	-0.127918	9.056257	0.145564	1.110693	-0.252596	-0.009081	-0.000321	0.022653
10034	14759451	-3.748588	-0.148834	9.123929	0.120634	1.081621	-0.244950	-0.009341	-0.000373	0.022822
10035	14759476	-3.842321	-0.151591	9.131877	0.106511	1.046665	-0.240909	-0.009576	-0.000379	0.022842
10036	14759501	-3.855953	-0.133374	9.054742	0.093038	1.006049	-0.231972	-0.009612	-0.000333	0.022649
10037	14759526	-3.872252	-0.109796	9.004257	0.083351	0.969999	-0.229582	-0.009653	-0.000274	0.022522
10038	14759551	-3.925995	-0.117864	8.968267	0.080872	0.930183	-0.220814	-0.009789	-0.000294	0.022432
10039	14759576	-3.918983	-0.202906	8.880182	0.070883	0.894124	-0.222987	-0.009773	-0.000507	0.022211
10040	14759601	-4.014090	-0.123242	8.933619	0.069371	0.859240	-0.225480	-0.010011	-0.000307	0.022345
10041	14759626	-4.011200	-0.068096	8.913823	0.072497	0.822374	-0.221674	-0.010005	-0.000169	0.022295
10042	14759651	-3.910772	-0.151991	8.905697	0.090799	0.773949	-0.225362	-0.009755	-0.000380	0.022274
10043	14759676	-3.834071	0.016540	8.695966	0.071926	0.750762	-0.220849	-0.009565	0.000042	0.021749
10044	14759701	-3.848501	0.011619	8.931516	0.040458	0.716168	-0.220132	-0.009601	0.000031	0.022337
10045	14759726	-4.016617	0.000778	8.903414	0.044987	0.688262	-0.219338	-0.010022	0.000003	0.022267
10048	14759751	-4.044215	0.010286	8.926041	0.045680	0.659660	-0.224181	-0.010092	0.000027	0.022323
10049	14759776	-3.965687	0.039085	8.948788	0.045101	0.633450	-0.225480	-0.009896	0.000099	0.022380
10050	14759801	-4.009697	-0.025290	8.874056	0.030425	0.607951	-0.230521	-0.010007	-0.000061	0.022193
10051	14759826	-4.038735	-0.070690	8.867205	0.034019	0.589116	-0.231728	-0.010081	-0.000175	0.022175
10052	14759851	-4.025233	-0.227732	8.902638	0.030483	0.578290	-0.230059	-0.010047	-0.000567	0.022264
10053	14759876	-4.163326	-0.258307	9.004817	0.041910	0.559005	-0.234965	-0.010393	-0.000644	0.022519
10054	14759901	-4.372419	-0.500058	9.256736	0.062008	0.535783	-0.240308	-0.010916	-0.001249	0.023149
10055	14759926	-4.345965	-0.432364	9.173082	0.082073	0.512451	-0.233369	-0.010851	-0.001080	0.022940
10056	14759951	-4.162351	-0.348269	9.118926	0.061892	0.499406	-0.214733	-0.010392	-0.000870	0.022804
10057	14759976	-4.030976	-0.335105	8.914120	0.032040	0.490245	-0.186048	-0.010064	-0.000836	0.022291
10058	14760001	-3.872997	-0.417103	9.129510	0.019930	0.484411	-0.165674	-0.009669	-0.001041	0.022830
10059	14760026	-3.996811	-0.378154	9.012507	0.023048	0.468238	-0.157943	-0.009979	-0.000944	0.022537
10060	14760051	-4.069779	-0.309397	9.039278	0.005844	0.468093	-0.136310	-0.010161	-0.000772	0.022604
10061	14760076	-4.164981	-0.254500	9.088608	0.003152	0.470725	-0.121571	-0.010399	-0.000635	0.022728
10062	14760101	-4.121923	-0.229352	8.974302	-0.004362	0.475535	-0.109552	-0.010292	-0.000572	0.022442
10063	14760126	-4.052760	-0.195975	8.897260	-0.014821	0.482701	-0.112395	-0.010119	-0.000488	0.022249
10064	14760151	-3.979619	-0.264486	8.810613	-0.000113	0.498115	-0.114229	-0.009935	-0.000660	0.022033
10065	14760176	-4.048553	-0.217856	8.861283	0.014733	0.511642	-0.119631	-0.010107	-0.000544	0.022160
10066	14760201	-3.920451	-0.274294	8.847861	0.023100	0.524242	-0.128829	-0.009787	-0.000685	0.022126
10067	14760226	-3.983910	-0.227764	8.927799	0.029540	0.545485	-0.133869	-0.009945	-0.000569	0.022326
10068	14760251	-3.897789	-0.287725	9.137891	0.055529	0.547029	-0.134289	-0.009729	-0.000719	0.022851
10069	14760276	-3.895435	-0.195732	8.808226	0.052965	0.561388	-0.136377	-0.009723	-0.000489	0.022027
10070	14760301	-4.144034	-0.248643	8.994182	0.031525	0.593591	-0.140281	-0.010344	-0.000621	0.022493
10071	14760326	-3.989288	-0.065145	8.896386	0.068793	0.612779	-0.145821	-0.009956	-0.000163	0.022249
10072	14760351	-3.788644	-0.329243	8.443239	0.084485	0.649470	-0.163169	-0.009455	-0.000823	0.021116
10073	14760376	-4.118833	-0.050743	8.345616	0.071469	0.705539	-0.161578	-0.010279	-0.000127	0.020873
10074	14760401	-3.315680	-0.326949	9.652818	0.068563	0.734076	-0.153716	-0.008267	-0.000818	0.024140
10075	14760426	-3.329681	-0.384562	8.894545	0.142653	0.709264	-0.179136	-0.008305	-0.000964	0.022244
10076	14760451	-3.663710	-0.038367	8.300580	0.124425	0.755726	-0.158484	-0.009140	-0.000097	0.020760
10077	14760476	-3.872106	-0.341482	8.775845	0.084049	0.798537	-0.160110	-0.009659	-0.000854	0.021949
10078	14760501	-3.989872	-0.219959	9.066195	0.114071	0.835720	-0.153098	-0.009951	-0.000551	0.022676
10079	14760526	-4.010392	-0.196701	9.031649	0.108241	0.886327	-0.150090	-0.010001	-0.000493	0.022590
10080	14760551	-4.191561	-0.050591	8.708797	0.078249	0.953837	-0.133026	-0.010453	-0.000127	0.021784
10081	14760576	-3.843224	-0.365247	8.885807	0.140591	1.015345	-0.127260	-0.009580	-0.000915	0.022227
10082	14760601	-2.995052	-0.408666	9.037008	0.189655	1.010257	-0.148958	-0.007459	-0.001026	0.022602
10083	14760626	-3.485379	0.190698	8.163159	0.167690	1.067269	-0.143062	-0.008686	0.000474	0.020420
10084	14760651	-3.623269	-0.076823	8.659652	0.169545	1.145354	-0.138122	-0.009027	-0.000195	0.021662
10085	14760676	-3.603537	-0.141184	8.948280	0.177519	1.213790	-0.152573	-0.008975	-0.000356	0.022384
10086	14760701	-3.744031	-0.135138	8.837799	0.211662	1.270910	-0.152990	-0.009325	-0.000342	0.022109
10087	14760726	-4.632085	-0.191544	7.770372	0.223075	1.339606	-0.137775	-0.011548	-0.000482	0.019445
10088	14760751	-3.780758	-0.374888	9.565522	0.183192	1.361211	-0.113188	-0.009411	-0.000941	0.023930
10089	14760776	-3.819199	-0.245774	8.978747	0.229523	1.253075	-0.141881	-0.009513	-0.000619	0.022462
10090	14760801	-4.345891	0.078307	7.731253	0.191324	1.238747	-0.121610	-0.010835	0.000193	0.019345
10091	14760826	-4.889107	-0.465614	8.176279	0.213529	1.189854	-0.116678	-0.012193	-0.001168	0.020459
10092	14760851	-5.684981	-0.267036	8.465455	0.213342	1.083662	-0.116116	-0.014184	-0.000671	0.021183
10093	14760876	-6.841260	0.139393	8.783758	0.148137	0.982201	-0.083564	-0.017076	0.000346	0.021980
10094	14760901	-5.646964	-0.269510	9.879502	0.167403	0.810012	-0.080538	-0.014092	-0.000678	0.024713
10095	14760926	-5.177186	0.254518	8.459072	0.158061	0.665388	-0.091709	-0.012925	0.000634	0.021159
10096	14760951	-4.990433	0.254668	7.684800	0.100487	0.613159	-0.098246	-0.012461	0.000636	0.019222
10097	14760976	-4.975276	0.255212	8.274286	0.074591	0.582446	-0.107498	-0.012423	0.000638	0.020695
10098	14761001	-5.205053	0.223800	8.594685	0.064543	0.555676	-0.132035	-0.012998	0.000560	0.021496
10099	14761026	-5.059367	-0.040611	8.628248	0.092426	0.569673	-0.143088	-0.012633	-0.000102	0.021580
10100	14761051	-3.928473	-0.433801	9.190613	0.160638	0.549954	-0.183895	-0.009806	-0.001087	0.022983
10101	14761076	-3.924665	0.027384	8.435012	0.186089	0.614056	-0.190873	-0.009795	0.000066	0.021095
10102	14761101	-3.820796	-0.041577	8.805981	0.172347	0.734985	-0.164858	-0.009532	-0.000107	0.022024
10103	14761126	-3.752248	-0.452997	9.177322	0.192574	0.851824	-0.138773	-0.009356	-0.001136	0.022953
10104	14761151	-4.375795	-0.307440	8.920672	0.235680	1.001825	-0.098224	-0.010912	-0.000774	0.022315
10105	14761176	-3.500909	-0.842801	9.963748	0.274585	1.124058	-0.064957	-0.008717	-0.002115	0.024921
10106	14761201	-3.659824	-0.489653	9.045574	0.345004	1.212210	-0.046822	-0.009115	-0.001233	0.022627
10107	14761226	-3.939237	-0.385810	8.500168	0.367134	1.335197	-0.001144	-0.009813	-0.000974	0.021266
10108	14761251	-4.370625	-0.418585	8.464106	0.399863	1.438069	0.034779	-0.010888	-0.001058	0.021179
10109	14761276	-4.644667	-0.206598	8.784685	0.404619	1.488290	0.070684	-0.011571	-0.000529	0.021983
10110	14761301	-4.280051	-0.393668	9.176279	0.410666	1.444263	0.066823	-0.010659	-0.000997	0.022959
10111	14761326	-5.438118	0.054411	7.905040	0.427199	1.434123	0.067556	-0.013560	0.000124	0.019787
10112	14761351	-5.898936	0.077771	8.275822	0.382704	1.438414	0.085005	-0.014710	0.000183	0.020716
10113	14761376	-5.527095	-0.159915	8.880356	0.378114	1.373801	0.067507	-0.013780	-0.000411	0.022224
10114	14761401	-5.093783	0.051884	8.561071	0.371625	1.264895	0.035732	-0.012701	0.000119	0.021423
10115	14761426	-5.368580	0.166338	7.770785	0.313051	1.232774	0.033163	-0.013392	0.000408	0.019448
10116	14761451	-5.467449	0.014536	8.238459	0.290598	1.222101	0.030854	-0.013637	0.000028	0.020617
10117	14761476	-5.233611	-0.171894	8.760988	0.291343	1.198137	0.014937	-0.013051	-0.000438	0.021922
10118	14761501	-5.355580	-0.144471	8.452270	0.294523	1.201544	0.003938	-0.013357	-0.000369	0.021151
10119	14761526	-5.114749	-0.156267	8.639845	0.313927	1.225174	0.009838	-0.012754	-0.000399	0.021619
10120	14761551	-4.716806	-0.248745	8.690440	0.309588	1.251293	0.019196	-0.011758	-0.000631	0.021744
10121	14761576	-4.810962	-0.057730	8.403622	0.302890	1.303790	0.030172	-0.011993	-0.000153	0.021029
10122	14761601	-4.813899	-0.139168	8.484505	0.315364	1.373256	0.041647	-0.011998	-0.000357	0.021232
10123	14761626	-4.091794	0.083139	8.605089	0.326243	1.447667	0.047106	-0.010191	0.000198	0.021531
10124	14761651	-2.982005	-0.165613	8.150931	0.372629	1.585397	0.004022	-0.007415	-0.000424	0.020392
10125	14761676	-0.252680	-0.297072	4.560770	0.582943	2.151112	-0.157060	-0.000601	-0.000751	0.011403
10126	14761701	0.267302	0.870541	8.055301	1.179095	3.069453	-0.391675	0.000747	0.002146	0.020139
10127	14761726	-2.023347	0.865601	8.798810	1.315055	3.512688	-0.498210	-0.004960	0.002131	0.022022
10128	14761751	-4.867835	-0.254187	6.678875	1.173236	3.624127	-0.459777	-0.012094	-0.000653	0.016751
10129	14761776	-7.154891	-1.442701	6.018396	1.169063	3.637946	-0.433923	-0.017821	-0.003619	0.015122
10130	14761801	-6.945849	-1.428192	7.111991	1.240120	3.721789	-0.470810	-0.017284	-0.003588	0.017855
10131	14761826	-4.252221	0.383316	7.703046	1.029883	3.812017	-0.492873	-0.010538	0.000940	0.019309
10132	14761851	-3.513240	0.882047	8.087723	1.034726	3.969445	-0.522108	-0.008681	0.002185	0.020265
10133	14761876	-3.305002	0.025529	7.798980	1.100528	4.239041	-0.643999	-0.008159	0.000044	0.019541
10134	14761901	-3.409356	-0.012225	7.016566	1.247306	4.564577	-0.853852	-0.008423	-0.000049	0.017590
10135	14761926	-3.942136	2.060978	6.670919	1.352497	4.854629	-1.014544	-0.009747	0.005137	0.016745
10136	14761951	-2.425263	2.547662	7.994770	1.231857	4.949308	-1.120982	-0.005930	0.006347	0.020034
10137	14761976	0.745748	2.681207	7.497083	1.027942	5.033561	-1.221907	0.001992	0.006676	0.018739
10138	14762001	8.518458	3.424209	4.366631	0.563083	5.619134	-1.171082	0.021385	0.008522	0.010773
10139	14762026	9.079468	-0.907912	8.453528	-0.014875	6.660892	-0.782645	0.022871	-0.002292	0.020944
10140	14762051	3.074210	-3.103662	11.537560	-0.371715	7.361229	-0.450406	0.007946	-0.007750	0.028775
10141	14762076	-4.671172	-2.743054	12.941495	-0.576775	7.633058	-0.316935	-0.011371	-0.006830	0.032468
10142	14762101	-11.454429	-0.112692	17.896424	-0.381863	7.488196	-0.347968	-0.028216	-0.000248	0.045007
10143	14762126	-19.646552	1.218326	23.295433	0.366296	7.097951	-0.459355	-0.048595	0.003047	0.058673
10144	14762151	-13.292455	0.828503	16.984848	0.994558	6.982929	-0.685644	-0.032857	0.002046	0.042753
10145	14762176	-0.070169	0.504748	11.424069	1.161952	7.190641	-0.909970	0.000083	0.001220	0.028562
10146	14762201	3.677877	1.434466	16.760950	1.105798	7.281301	-1.052565	0.009580	0.003516	0.041821
10147	14762226	-0.758386	2.128785	19.739894	0.858281	7.565777	-1.148586	-0.001422	0.005271	0.049370
10150	14762251	-2.758489	0.304918	14.430485	0.794617	8.058984	-1.309856	-0.006531	0.000737	0.036144
10151	14762276	-4.929950	-0.320197	8.683673	0.936372	8.478754	-1.534711	-0.012095	-0.000803	0.021837
10152	14762301	-6.819897	0.788049	7.827381	0.907717	8.676348	-1.705637	-0.016832	0.001984	0.019754
10153	14762326	-5.596304	1.311613	9.873187	0.968923	8.816978	-1.946229	-0.013710	0.003283	0.024839
10154	14762351	-6.973105	1.872060	11.238367	1.252000	9.134051	-2.358401	-0.017097	0.004687	0.028300
10155	14762376	-5.765096	8.666252	15.326240	1.216682	9.198207	-2.467529	-0.013904	0.021651	0.038510
10156	14762401	-11.220972	0.630268	12.382259	0.759997	9.245766	-2.570627	-0.027687	0.001635	0.031279
10157	14762426	-14.848639	-4.697616	9.778053	1.155067	9.586332	-2.940237	-0.036868	-0.011644	0.024871
10158	14762451	-6.887234	-2.266715	7.956308	1.671389	9.750243	-3.316130	-0.016997	-0.005638	0.020087
10159	14762476	-10.030610	1.245647	9.730589	2.121284	9.769927	-3.382404	-0.024764	0.003154	0.024639
10160	14762501	-14.682979	11.641960	22.008500	1.267668	9.672382	-2.827798	-0.035935	0.029145	0.055505
10161	14762526	-5.888991	10.841360	19.203394	0.158362	9.716170	-2.624897	-0.014049	0.027141	0.048187
10162	14762551	-4.274075	10.496169	12.245786	-0.004171	10.015411	-2.983019	-0.010203	0.026279	0.030744
10163	14762576	-11.136879	7.642132	10.809812	0.050767	10.022871	-3.224642	-0.027423	0.019215	0.027371
10164	14762601	-12.093258	5.886240	16.651448	0.253193	9.864092	-3.528936	-0.029652	0.014834	0.042001
10165	14762626	-11.273415	3.159898	21.395391	0.569538	9.642883	-3.786609	-0.027498	0.007993	0.053828
10166	14762651	-11.787395	0.323815	29.971324	1.015281	9.399468	-4.068172	-0.028581	0.000861	0.075269
10167	14762676	-10.425648	0.326528	30.922801	1.492033	8.959021	-4.246950	-0.025192	0.000807	0.077594
10168	14762701	-10.145820	1.383261	22.596070	2.122559	8.812867	-4.236227	-0.024722	0.003440	0.056774
10169	14762726	-6.554204	1.611490	17.814988	1.880648	8.885552	-4.102095	-0.015869	0.004006	0.044725
10170	14762751	-0.904606	4.559282	21.182780	1.686203	8.612688	-4.031185	-0.001634	0.011296	0.053001
10171	14762776	3.787545	7.116768	24.290491	2.068753	7.867278	-3.946759	0.010153	0.017586	0.060674
10172	14762801	9.443836	5.361030	16.417593	1.862931	7.160972	-3.926541	0.024041	0.013190	0.040861
10173	14762826	6.853357	0.761514	10.056975	0.309124	7.029904	-4.051078	0.017363	0.001807	0.024991
10174	14762851	-30.663083	6.769464	33.334472	-0.324834	6.966561	-3.812497	-0.075846	0.017320	0.083992
10175	14762876	-72.204688	12.055699	52.648509	0.751872	5.968633	-2.760130	-0.179418	0.030635	0.132991
10176	14762901	-79.598446	10.217840	60.527873	2.427699	4.447794	-1.611111	-0.198099	0.025483	0.152500
10177	14762926	-67.429919	14.288247	61.541630	4.181442	2.434613	-0.729936	-0.168073	0.035068	0.154551
10178	14762951	-48.045727	20.988339	59.101099	5.100860	0.253880	0.004506	-0.120068	0.051527	0.148121
10179	14762976	-28.637573	23.782279	50.947112	4.788210	-1.311504	0.477632	-0.071838	0.058650	0.127603
10180	14763001	-12.665973	23.834177	49.593691	4.744917	-1.334567	0.301002	-0.031894	0.058837	0.124282
10181	14763026	-3.133269	24.975906	50.858853	5.529302	-0.386924	-0.570718	-0.007851	0.061565	0.127571
10182	14763051	-2.617024	27.646872	51.447572	4.799237	0.301397	-1.009502	-0.006407	0.068352	0.129033
10183	14763076	-5.775689	23.863131	46.295184	2.188239	0.041354	-0.810012	-0.014373	0.059356	0.115901
10184	14763101	-7.535985	21.625004	36.832949	0.302026	-0.337108	-0.553975	-0.018841	0.054041	0.092095
10185	14763126	-5.045225	21.443008	28.896882	-0.331724	-0.677237	-0.359906	-0.012650	0.053643	0.072209
10186	14763151	-1.748604	20.597627	22.747279	-0.636056	-1.007216	-0.100011	-0.004437	0.051540	0.056822
10187	14763176	0.490333	19.148822	19.024461	-0.885232	-1.278528	0.096518	0.001144	0.047925	0.047510
10188	14763201	2.050283	17.763635	17.456568	-1.006024	-1.499599	0.259723	0.005030	0.044466	0.043595
10189	14763226	2.633762	16.217995	16.770817	-0.960487	-1.706619	0.343664	0.006478	0.040598	0.041892
10190	14763251	1.840818	15.354434	15.780009	-0.873236	-1.897551	0.339999	0.004492	0.038431	0.039419
10191	14763276	0.741010	14.731737	14.855573	-0.834459	-2.100863	0.312058	0.001741	0.036869	0.037105
10192	14763301	-0.216471	13.935196	13.637453	-0.862047	-2.307235	0.260748	-0.000651	0.034874	0.034054
10193	14763326	-0.919518	13.177467	12.446992	-0.897806	-2.430937	0.218405	-0.002402	0.032978	0.031073
10194	14763351	-0.172347	11.705871	11.700933	-0.923391	-2.495030	0.247680	-0.000531	0.029298	0.029217
10195	14763376	1.086624	9.877948	10.877452	-1.023278	-2.518297	0.361115	0.002620	0.024731	0.027170
10196	14763401	1.970130	8.581063	10.144066	-1.133696	-2.504858	0.516383	0.004832	0.021492	0.025345
10197	14763426	2.427674	7.449546	9.428498	-1.221563	-2.471098	0.688013	0.005980	0.018665	0.023561
10198	14763451	2.798267	6.890134	9.187270	-1.295279	-2.467344	0.842440	0.006907	0.017270	0.022962
10199	14763476	3.040389	6.473351	8.431409	-1.351476	-2.481462	0.989961	0.007516	0.016228	0.021075
10200	14763501	3.232038	5.703500	7.710473	-1.354385	-2.512616	1.147169	0.007999	0.014303	0.019277
10201	14763526	2.648544	4.620798	6.557887	-1.271422	-2.530761	1.234721	0.006552	0.011588	0.016397
10202	14763551	2.311788	4.075805	6.260087	-0.978228	-2.532219	1.286338	0.005714	0.010218	0.015656
10203	14763576	1.618882	3.701455	6.366572	-0.666426	-2.580698	1.286258	0.003981	0.009273	0.015922
10204	14763601	1.220405	3.715806	5.853907	-0.268587	-2.657873	1.317056	0.002987	0.009299	0.014642
10205	14763626	1.261635	3.571384	5.842823	0.187047	-2.751326	1.358983	0.003089	0.008930	0.014620
10206	14763651	0.924535	3.152443	6.654315	0.592280	-2.860183	1.379892	0.002238	0.007873	0.016650
10207	14763676	0.802249	3.173656	8.626327	0.867632	-2.994624	1.419060	0.001911	0.007914	0.021582
10208	14763701	0.704285	3.443001	10.527452	1.008487	-3.112707	1.480063	0.001642	0.008577	0.026336
10209	14763726	0.722136	3.614906	12.333539	1.035438	-3.180134	1.564134	0.001665	0.009001	0.030852
10210	14763751	0.479529	3.763743	13.721376	0.995287	-3.246962	1.653367	0.001040	0.009369	0.034320
10211	14763776	-0.175338	3.971072	14.585179	0.889515	-3.328514	1.746629	-0.000612	0.009886	0.036472
10212	14763801	-0.852940	4.184930	15.201547	0.741859	-3.442251	1.820327	-0.002320	0.010422	0.038004
10213	14763826	-1.444730	4.265308	15.146970	0.596338	-3.612431	1.872612	-0.003808	0.010626	0.037858
10214	14763851	-1.798084	4.155776	14.740830	0.479943	-3.789545	1.914419	-0.004695	0.010356	0.036836
10215	14763876	-1.898154	3.836563	14.351186	0.412377	-3.956935	1.949006	-0.004946	0.009561	0.035859
10216	14763901	-1.956728	3.689548	14.278883	0.341906	-4.096359	1.963017	-0.005097	0.009196	0.035675
10217	14763926	-1.914590	3.711911	14.179301	0.256149	-4.248652	1.981331	-0.004998	0.009256	0.035425
10218	14763951	-1.919308	3.323742	14.110035	0.121542	-4.368783	2.014540	-0.005012	0.008292	0.035249
10219	14763976	-2.046409	2.968814	13.705641	-0.042765	-4.506591	2.048023	-0.005328	0.007410	0.034234
10220	14764001	-2.103227	2.766246	13.044924	-0.198474	-4.613402	2.058408	-0.005464	0.006910	0.032579
10221	14764026	-2.175899	2.346623	12.262564	-0.342596	-4.711100	2.068100	-0.005635	0.005865	0.030621
10222	14764051	-2.162267	1.715670	11.331773	-0.485984	-4.793592	2.085087	-0.005586	0.004292	0.028294
10223	14764076	-2.191265	1.083214	10.451561	-0.575939	-4.865489	2.089049	-0.005644	0.002712	0.026093
10224	14764101	-2.053555	0.460351	9.536828	-0.641899	-4.913504	2.081325	-0.005283	0.001156	0.023809
10225	14764126	-1.961873	-0.308776	8.734758	-0.696767	-4.956203	2.067729	-0.005038	-0.000766	0.021807
10226	14764151	-1.956756	-1.178512	7.946767	-0.719979	-5.003837	2.051351	-0.005008	-0.002941	0.019838
10227	14764176	-2.041414	-2.018975	7.072167	-0.690336	-5.038589	1.987809	-0.005202	-0.005045	0.017652
10228	14764201	-2.182140	-2.908491	6.094057	-0.593855	-5.056647	1.900767	-0.005534	-0.007273	0.015206
10229	14764226	-2.177312	-3.923473	5.550695	-0.441730	-5.044068	1.798952	-0.005509	-0.009813	0.013848
10230	14764251	-2.081099	-4.779196	5.067571	-0.249140	-5.006745	1.700777	-0.005257	-0.011955	0.012640
10231	14764276	-1.898759	-5.230409	4.989021	-0.055397	-4.948757	1.608087	-0.004798	-0.013085	0.012444
10232	14764301	-1.811324	-5.449971	4.784615	0.131083	-4.907609	1.511760	-0.004576	-0.013636	0.011931
10233	14764326	-1.832669	-5.452795	4.443871	0.309249	-4.863654	1.448531	-0.004624	-0.013645	0.011076
10234	14764351	-1.972504	-5.755407	4.382816	0.500752	-4.812683	1.403568	-0.004972	-0.014404	0.010918
10235	14764376	-2.271767	-5.804986	4.391696	0.687321	-4.781705	1.384309	-0.005720	-0.014532	0.010933
10236	14764401	-2.603989	-5.831049	4.356698	0.786173	-4.789897	1.405040	-0.006549	-0.014600	0.010838
10237	14764426	-2.800725	-5.644997	4.667445	0.794272	-4.828245	1.460884	-0.007046	-0.014137	0.011612
10238	14764451	-3.033890	-5.395824	5.028551	0.770932	-4.916707	1.545138	-0.007636	-0.013516	0.012512
10239	14764476	-3.140587	-5.019852	5.363974	0.729995	-4.999329	1.640695	-0.007909	-0.012578	0.013349
10240	14764501	-3.087398	-4.388724	5.914467	0.729797	-5.059792	1.674079	-0.007789	-0.011002	0.014727
10241	14764526	-3.027569	-3.569669	6.253656	0.750921	-5.094964	1.669472	-0.007650	-0.008955	0.015577
10242	14764551	-3.134491	-2.954982	6.761185	0.761521	-5.087153	1.628691	-0.007928	-0.007420	0.016846
10243	14764576	-3.256552	-2.637807	7.681374	0.780550	-5.041425	1.575631	-0.008249	-0.006629	0.019145
10244	14764601	-3.504753	-2.444236	8.895118	0.794703	-4.965940	1.516648	-0.008888	-0.006149	0.022177
10245	14764626	-3.990925	-2.038635	10.076178	0.754555	-4.912854	1.463988	-0.010122	-0.005139	0.025124
10246	14764651	-4.657646	-1.972894	11.299972	0.667496	-4.888607	1.435515	-0.011808	-0.004977	0.028174
10247	14764676	-5.285604	-2.033986	12.213566	0.582991	-4.904389	1.425510	-0.013392	-0.005131	0.030448
10248	14764701	-5.917406	-2.039598	13.032849	0.512641	-4.949713	1.408289	-0.014986	-0.005146	0.032487
10249	14764726	-6.491469	-2.043806	13.817582	0.469813	-5.006067	1.390157	-0.016435	-0.005158	0.034439
10252	14764751	-7.056219	-2.007344	14.758149	0.431682	-5.073511	1.354394	-0.017865	-0.005068	0.036780
10253	14764776	-7.525086	-2.046054	15.581443	0.387829	-5.157385	1.312120	-0.019055	-0.005165	0.038829
10254	14764801	-7.878065	-2.253252	16.150128	0.345994	-5.250947	1.284600	-0.019950	-0.005682	0.040242
10255	14764826	-8.168529	-2.584654	16.480277	0.294309	-5.342647	1.265205	-0.020686	-0.006509	0.041061
10256	14764851	-8.385508	-2.945582	16.590819	0.273051	-5.429011	1.250843	-0.021233	-0.007411	0.041331
10257	14764876	-8.520800	-3.270081	16.531064	0.273883	-5.517783	1.241437	-0.021574	-0.008223	0.041177
10258	14764901	-8.739937	-3.535102	16.374370	0.298795	-5.601911	1.233110	-0.022122	-0.008887	0.040778
10259	14764926	-8.953432	-3.758558	16.177961	0.334311	-5.678610	1.219541	-0.022656	-0.009448	0.040281
10260	14764951	-9.093502	-3.903439	15.927337	0.376173	-5.753174	1.214547	-0.023004	-0.009812	0.039649
10261	14764976	-9.186535	-3.928401	15.611945	0.418941	-5.815098	1.206287	-0.023234	-0.009876	0.038856
10262	14765001	-9.196869	-3.972614	15.293776	0.470480	-5.879559	1.197564	-0.023257	-0.009989	0.038058
10263	14765026	-9.236894	-3.951676	14.861429	0.519309	-5.940033	1.202288	-0.023352	-0.009938	0.036974
10264	14765051	-9.286443	-3.805203	14.336257	0.558690	-5.987283	1.195325	-0.023469	-0.009573	0.035659
10265	14765076	-9.355517	-3.651982	13.864316	0.605534	-6.022642	1.195285	-0.023635	-0.009191	0.034477
10266	14765101	-9.374678	-3.431361	13.392773	0.633757	-6.044876	1.201254	-0.023676	-0.008640	0.033297
10267	14765126	-9.301635	-3.143422	12.950806	0.655209	-6.059198	1.199545	-0.023487	-0.007920	0.032193
10268	14765151	-9.200929	-2.880269	12.508637	0.665534	-6.056517	1.202193	-0.023227	-0.007261	0.031090
10269	14765176	-9.046759	-2.599547	12.137095	0.662830	-6.044599	1.201266	-0.022835	-0.006558	0.030165
10270	14765201	-8.895409	-2.350604	11.816055	0.632342	-6.013285	1.199128	-0.022451	-0.005933	0.029367
10271	14765226	-8.636779	-2.192899	11.579010	0.590241	-5.974822	1.188650	-0.021799	-0.005536	0.028781
10272	14765251	-8.768235	-1.713225	11.364829	0.521963	-5.936988	1.161631	-0.022124	-0.004334	0.028246
10273	14765276	-8.893346	-1.733492	11.690179	0.490742	-5.877796	1.173759	-0.022441	-0.004384	0.029058
10274	14765301	-8.816138	-1.801171	11.701853	0.443315	-5.828084	1.160902	-0.022246	-0.004551	0.029091
10275	14765326	-8.819098	-1.566237	11.799758	0.357951	-5.768447	1.149572	-0.022254	-0.003961	0.029338
10276	14765351	-8.884135	-1.579189	11.964562	0.272144	-5.708419	1.146681	-0.022417	-0.003990	0.029751
10277	14765376	-8.993159	-1.597459	12.076219	0.196061	-5.642602	1.139885	-0.022689	-0.004033	0.030030
10278	14765401	-9.031251	-1.745222	12.211533	0.119209	-5.576127	1.130480	-0.022784	-0.004400	0.030370
10279	14765426	-9.195665	-1.652319	12.381352	0.058017	-5.516308	1.104507	-0.023196	-0.004165	0.030794
10280	14765451	-9.635707	-1.730065	12.627344	0.045629	-5.451697	1.107435	-0.024298	-0.004360	0.031403
10281	14765476	-9.475496	-2.042034	12.474122	0.013335	-5.386425	1.102222	-0.023891	-0.005138	0.031025
10282	14765501	-9.482521	-1.633242	12.432083	-0.078495	-5.314140	1.075795	-0.023907	-0.004112	0.030922
10283	14765526	-9.818336	-1.699182	12.845719	-0.109901	-5.249673	1.062865	-0.024750	-0.004276	0.031953
10284	14765551	-9.891955	-1.926797	12.984776	-0.095773	-5.177619	1.038925	-0.024933	-0.004845	0.032302
10285	14765576	-9.906948	-1.893564	13.277494	-0.118341	-5.103578	1.013389	-0.024972	-0.004761	0.033036
10286	14765601	-10.133450	-1.860337	13.994444	-0.129008	-5.043498	0.987644	-0.025548	-0.004677	0.034826
10287	14765626	-10.371135	-1.969048	14.732501	-0.096304	-4.988135	0.955563	-0.026151	-0.004949	0.036669
10288	14765651	-10.655762	-1.891022	15.573365	-0.077361	-4.931983	0.928101	-0.026873	-0.004755	0.038769
10289	14765676	-11.066522	-1.821850	16.618927	-0.052132	-4.891971	0.897942	-0.027915	-0.004583	0.041377
10290	14765701	-11.740521	-1.707935	17.835009	-0.005074	-4.854993	0.874851	-0.029616	-0.004302	0.044408
10291	14765726	-12.392552	-1.540409	19.062079	0.034860	-4.848121	0.855216	-0.031265	-0.003886	0.047466
10292	14765751	-13.061885	-1.234936	20.232135	0.067194	-4.858242	0.845636	-0.032958	-0.003126	0.050381
10293	14765776	-13.764472	-0.942999	21.349057	0.123292	-4.878971	0.833307	-0.034733	-0.002402	0.053161
10294	14765801	-14.556095	-0.617743	22.382144	0.179779	-4.921237	0.817239	-0.036732	-0.001594	0.055730
10295	14765826	-15.286883	-0.143719	23.362821	0.245597	-4.975537	0.803108	-0.038579	-0.000416	0.058168
10296	14765851	-15.915988	0.408275	24.097491	0.263563	-5.045943	0.804369	-0.040170	0.000961	0.059991
10297	14765876	-16.638417	0.966731	24.583166	0.272553	-5.123866	0.820598	-0.041991	0.002353	0.061191
10298	14765901	-17.351962	1.531793	24.845429	0.262049	-5.211797	0.845219	-0.043787	0.003763	0.061830
10299	14765926	-17.945893	2.099295	24.742024	0.242091	-5.296298	0.878366	-0.045279	0.005180	0.061558
10300	14765951	-18.453809	2.687077	24.372578	0.209291	-5.377738	0.908647	-0.046550	0.006649	0.060621
10301	14765976	-18.827504	3.254020	23.739612	0.161736	-5.462795	0.947888	-0.047482	0.008067	0.059027
10302	14766001	-19.012730	3.739637	22.727500	0.113715	-5.523614	0.990833	-0.047934	0.009282	0.056490
10303	14766026	-19.026788	4.220700	21.450386	0.054343	-5.570943	1.031571	-0.047952	0.010486	0.053294
10304	14766051	-18.931913	4.543656	20.129196	-0.013375	-5.602857	1.084537	-0.047696	0.011295	0.049990
10305	14766076	-18.806646	4.766853	18.626237	-0.092798	-5.612784	1.157410	-0.047359	0.011854	0.046233
10306	14766101	-18.733692	5.029739	17.158141	-0.164528	-5.603247	1.221089	-0.047152	0.012511	0.042563
10307	14766126	-18.594857	5.259617	15.691610	-0.255863	-5.570687	1.298130	-0.046780	0.013086	0.038900
10308	14766151	-18.456408	5.323824	14.359764	-0.367016	-5.540314	1.402056	-0.046411	0.013245	0.035573
10309	14766176	-18.309183	5.523679	13.232637	-0.479862	-5.490405	1.516289	-0.046025	0.013742	0.032758
10310	14766201	-18.082191	5.348541	12.192960	-0.633555	-5.433935	1.659336	-0.045439	0.013301	0.030164
10311	14766226	-17.751266	5.242704	11.292812	-0.829030	-5.383319	1.810916	-0.044596	0.013035	0.027919
10312	14766251	-18.137731	5.265946	9.971162	-1.026046	-5.297316	1.950717	-0.045540	0.013086	0.024610
10313	14766276	-17.719537	5.541756	9.503321	-1.176949	-5.197749	2.110103	-0.044488	0.013772	0.023449
10314	14766301	-17.660643	5.177578	8.641288	-1.355915	-5.116576	2.272961	-0.044325	0.012854	0.021298
10315	14766326	-17.743567	4.685682	7.726964	-1.501099	-5.009566	2.393257	-0.044513	0.011617	0.019017
10316	14766351	-17.385499	5.489384	7.710629	-1.521044	-4.877627	2.388807	-0.043621	0.013630	0.018985
10317	14766376	-17.642247	5.729603	6.463066	-1.439742	-4.759710	2.383802	-0.044243	0.014221	0.015869
10318	14766401	-20.418348	6.193059	3.525181	-1.435661	-4.493639	2.418715	-0.051141	0.015344	0.008498
10319	14766426	-22.689911	5.701926	2.730332	-1.411638	-4.142035	2.478263	-0.056803	0.014091	0.006507
10320	14766451	-24.017967	4.829689	2.607518	-1.259157	-3.829395	2.460837	-0.060112	0.011899	0.006212
10321	14766476	-23.368866	4.280026	2.905080	-0.934321	-3.636450	2.346657	-0.058485	0.010537	0.006985
10322	14766501	-22.602793	3.779553	1.575633	-0.611259	-3.460207	2.157356	-0.056549	0.009299	0.003687
10323	14766526	-22.068913	3.885618	0.736351	-0.338821	-3.233260	1.937733	-0.055202	0.009581	0.001614
10324	14766551	-22.099854	3.134208	-0.014198	-0.049684	-2.994368	1.756210	-0.055266	0.007714	-0.000243
10325	14766576	-21.937349	2.335022	-0.016569	0.216112	-2.729185	1.628643	-0.054855	0.005726	-0.000227
10326	14766601	-21.864856	1.597536	-0.032221	0.411398	-2.484530	1.561942	-0.054669	0.003887	-0.000248
10327	14766626	-21.621502	0.868170	-0.723632	0.464254	-2.231756	1.568063	-0.054053	0.002066	-0.001959
10328	14766651	-21.356505	0.260892	-1.739484	0.500075	-1.960230	1.602505	-0.053382	0.000548	-0.004479
10329	14766676	-21.168118	-0.245335	-3.027933	0.615876	-1.644304	1.621644	-0.052903	-0.000715	-0.007679
10330	14766701	-21.209203	-0.532564	-3.919203	0.769776	-1.305352	1.625449	-0.053004	-0.001430	-0.009886
10331	14766726	-21.442883	-0.628836	-4.284161	0.850941	-0.970704	1.624029	-0.053591	-0.001669	-0.010777
10332	14766751	-21.844180	-0.611947	-4.742017	0.893388	-0.653893	1.631773	-0.054597	-0.001628	-0.011901
10333	14766776	-22.391863	-0.604870	-5.122818	0.915345	-0.347461	1.641667	-0.055971	-0.001612	-0.012833
10334	14766801	-22.846412	-0.789725	-5.331142	0.888435	-0.062735	1.655766	-0.057111	-0.002078	-0.013335
10335	14766826	-23.430837	-0.621706	-5.337213	0.817818	0.185445	1.661219	-0.058577	-0.001662	-0.013331
10336	14766851	-24.271688	-0.745161	-5.404596	0.688680	0.401697	1.666744	-0.060682	-0.001978	-0.013483
10337	14766876	-25.054791	-0.922952	-5.425313	0.585199	0.561168	1.665533	-0.062642	-0.002428	-0.013521
10338	14766901	-26.093896	-1.154206	-6.125229	0.627702	0.708070	1.630038	-0.065242	-0.003006	-0.015258
10339	14766926	-26.734069	-0.767960	-5.222723	0.597695	0.779695	1.576638	-0.066844	-0.002042	-0.012993
10340	14766951	-27.658809	-0.727344	-5.276332	0.451203	0.768585	1.522587	-0.069156	-0.001943	-0.013125
10341	14766976	-28.179800	-0.748625	-5.841964	0.345560	0.717135	1.458436	-0.070459	-0.001994	-0.014543
10342	14767001	-28.473639	-1.096880	-6.558951	0.225796	0.617536	1.375466	-0.071192	-0.002860	-0.016343
10343	14767026	-28.418099	-1.359299	-7.390106	0.109892	0.501691	1.277418	-0.071051	-0.003509	-0.018431
10344	14767051	-28.288574	-1.726977	-8.152265	-0.022031	0.382468	1.155912	-0.070725	-0.004420	-0.020347
10345	14767076	-27.893251	-2.276102	-8.909713	-0.130641	0.269024	1.028522	-0.069733	-0.005784	-0.022250
10346	14767101	-27.297861	-2.806034	-9.696483	-0.201917	0.196537	0.896147	-0.068243	-0.007098	-0.024223
10347	14767126	-26.486781	-3.235181	-10.169966	-0.256817	0.179473	0.763551	-0.066215	-0.008159	-0.025407
10348	14767151	-25.604830	-3.740714	-10.870155	-0.287156	0.222005	0.650312	-0.064012	-0.009414	-0.027154
10349	14767176	-24.633309	-4.095610	-10.949445	-0.273041	0.341979	0.523603	-0.061588	-0.010289	-0.027344
10350	14767201	-23.538823	-4.242781	-11.045326	-0.229812	0.490828	0.432773	-0.058858	-0.010647	-0.027574
10352	14767226	-22.588579	-4.299205	-10.699136	-0.212646	0.689954	0.346257	-0.056490	-0.010780	-0.026696
10354	14767251	-22.078390	-4.029025	-10.088302	-0.154771	0.906018	0.269219	-0.055221	-0.010096	-0.025156
