PacketCounter	SampleTimeFine	Acc_X	Acc_Y	Acc_Z	Gyr_X	Gyr_Y	Gyr_Z	VelInc_X	VelInc_Y	VelInc_Z
01428	9722546	-1.993393	0.836111	9.571671	-0.003228	0.004016	0.001526	-0.004983	0.002090	0.023929
01429	9722571	-1.994707	0.855405	9.567749	-0.004749	-0.000216	0.001712	-0.004987	0.002139	0.023919
01430	9722596	-2.025053	0.858095	9.575711	-0.000992	0.001085	0.003329	-0.005063	0.002145	0.023939
01431	9722621	-2.005775	0.866312	9.589029	-0.002596	0.003052	0.005420	-0.005014	0.002166	0.023973
01432	9722646	-2.002982	0.848468	9.575694	-0.000775	0.005385	0.006767	-0.005007	0.002121	0.023939
01433	9722671	-2.018200	0.856689	9.584997	-0.002861	0.004454	0.000824	-0.005045	0.002142	0.023963
01434	9722696	-2.019534	0.845764	9.579666	-0.000295	0.004324	0.000528	-0.005049	0.002114	0.023949
01435	9722721	-2.009897	0.866287	9.586373	-0.000204	0.003582	0.002828	-0.005025	0.002166	0.023966
01436	9722746	-2.008502	0.873214	9.579760	0.001228	0.008947	0.001177	-0.005021	0.002183	0.023949
01437	9722771	-1.986489	0.859457	9.578392	-0.003617	0.002730	0.005157	-0.004966	0.002149	0.023946
01438	9722796	-2.005726	0.851314	9.557098	-0.004441	0.006534	0.006229	-0.005014	0.002128	0.023893
01439	9722821	-2.005694	0.862276	9.559805	-0.003658	0.003520	0.002798	-0.005014	0.002156	0.023900
01442	9722846	-2.007129	0.858061	9.582365	-0.002819	-0.001197	0.000836	-0.005018	0.002145	0.023956
01443	9722871	-2.000268	0.860824	9.589024	0.003251	0.000404	-0.002946	-0.005001	0.002152	0.023973
01444	9722896	-1.997503	0.855342	9.574396	-0.001892	0.005457	0.003451	-0.004994	0.002138	0.023936
01445	9722921	-2.014087	0.837395	9.587605	-0.000192	0.006527	0.002314	-0.005035	0.002093	0.023969
01446	9722946	-2.009911	0.847062	9.590298	-0.005554	0.004545	0.006159	-0.005025	0.002118	0.023976
01447	9722971	-2.000245	0.853998	9.567736	-0.003193	0.001833	0.001335	-0.005001	0.002135	0.023919
01448	9722996	-1.997519	0.851213	9.582343	-0.006360	0.004263	0.008573	-0.004994	0.002128	0.023956
01449	9723021	-2.013991	0.847181	9.561078	-0.000842	0.005908	0.007336	-0.005035	0.002118	0.023903
01450	9723046	-1.991937	0.838937	9.554415	-0.004669	0.002415	0.001583	-0.004980	0.002097	0.023886
01451	9723071	-1.950670	0.848545	9.558454	-0.001764	0.007117	0.006568	-0.004876	0.002121	0.023896
01452	9723096	-1.967076	0.878845	9.542608	-0.002310	0.003599	0.003320	-0.004918	0.002197	0.023857
01453	9723121	-2.000186	0.870525	9.563815	-0.002615	0.001301	0.000387	-0.005000	0.002176	0.023910
01454	9723146	-2.001624	0.860817	9.578401	0.000560	0.004661	-0.002456	-0.005004	0.002152	0.023946
01455	9723171	-1.979587	0.869094	9.582416	0.000603	0.005594	0.003846	-0.004949	0.002173	0.023956
01456	9723196	-1.996103	0.869128	9.571779	-0.002642	0.001107	0.004144	-0.004990	0.002173	0.023929
01457	9723221	-2.009856	0.855364	9.571735	0.003026	0.001711	0.002660	-0.005025	0.002138	0.023929
01458	9723246	-2.023601	0.869188	9.558482	-0.005133	0.008813	0.004183	-0.005059	0.002173	0.023896
01459	9723271	-2.011236	0.867747	9.571761	-0.002982	0.006117	0.004329	-0.005028	0.002169	0.023929
01460	9723296	-1.993354	0.858100	9.575729	-0.002016	0.003746	0.000770	-0.004983	0.002145	0.023939
01461	9723321	-2.000290	0.833350	9.579632	0.001916	0.002679	0.002460	-0.005001	0.002083	0.023949
01462	9723346	-2.030582	0.859413	9.590315	-0.002417	0.001179	0.000954	-0.005076	0.002149	0.023976
01463	9723371	-1.991970	0.843036	9.562401	-0.006245	0.003397	-0.001234	-0.004980	0.002108	0.023906
01464	9723396	-1.979534	0.854063	9.559792	-0.002436	0.005789	-0.000253	-0.004949	0.002135	0.023900
01465	9723421	-2.012700	0.836067	9.583620	-0.002341	0.004071	0.001150	-0.005032	0.002090	0.023959
01466	9723446	-2.011244	0.847145	9.566392	-0.002217	0.005050	0.001726	-0.005028	0.002118	0.023916
01467	9723471	-2.014029	0.849876	9.574367	0.003332	0.000559	0.006613	-0.005035	0.002125	0.023936
01468	9723496	-2.012559	0.856834	9.541187	-0.000842	0.003983	0.003779	-0.005031	0.002142	0.023853
01469	9723521	-2.002910	0.869218	9.549200	-0.001384	0.007856	0.000706	-0.005007	0.002173	0.023873
01470	9723546	-2.007004	0.874743	9.534600	-0.003794	0.005503	-0.002235	-0.005017	0.002187	0.023837
01471	9723571	-1.990588	0.849878	9.567737	-0.004777	0.002381	0.003366	-0.004976	0.002125	0.023919
01472	9723596	-2.012636	0.852632	9.577027	-0.001951	0.004280	0.001787	-0.005031	0.002132	0.023943
01473	9723621	-1.997508	0.854012	9.571723	-0.001067	0.005917	0.003831	-0.004994	0.002135	0.023929
01474	9723646	-1.998866	0.880072	9.583765	0.000013	0.002378	0.003590	-0.004997	0.002200	0.023959
01475	9723671	-2.015310	0.885657	9.561198	0.000070	0.000314	-0.001125	-0.005038	0.002214	0.023903
01476	9723696	-1.997460	0.851282	9.561098	-0.002490	0.005680	0.000958	-0.004993	0.002128	0.023903
01477	9723721	-1.998866	0.858177	9.561108	-0.002922	0.001790	0.002739	-0.004997	0.002146	0.023903
01478	9723746	-1.998891	0.851226	9.577029	-0.000539	0.003161	0.000341	-0.004997	0.002128	0.023943
01479	9723771	-1.996047	0.866394	9.563808	-0.006820	0.003581	0.006086	-0.004990	0.002166	0.023910
01480	9723796	-2.005700	0.856772	9.559784	-0.003523	0.002414	0.001460	-0.005014	0.002142	0.023899
01481	9723821	-1.987808	0.855393	9.563776	-0.005312	0.001419	-0.000334	-0.004969	0.002139	0.023909
01482	9723846	-2.018156	0.849817	9.584994	-0.001498	0.002560	-0.000949	-0.005045	0.002125	0.023962
01483	9723871	-2.019514	0.859537	9.574392	-0.002000	0.004436	0.003316	-0.005049	0.002149	0.023936
01484	9723896	-2.001674	0.844270	9.590300	0.002119	0.002891	0.003994	-0.005004	0.002111	0.023976
01485	9723921	-2.022321	0.849806	9.587639	-0.005169	0.002305	0.002719	-0.005056	0.002125	0.023969
01486	9723946	-1.993389	0.836127	9.571673	-0.005095	0.001338	0.002532	-0.004983	0.002090	0.023929
01487	9723971	-1.998878	0.829276	9.563681	0.002129	0.000595	0.000484	-0.004997	0.002073	0.023909
01488	9723996	-1.997450	0.858135	9.570412	-0.002919	0.004253	-0.000063	-0.004993	0.002145	0.023926
01489	9724021	-2.027788	0.860828	9.579705	0.002731	0.001702	0.005971	-0.005069	0.002152	0.023949
01490	9724046	-1.993317	0.859570	9.561117	0.001778	-0.001392	0.000875	-0.004983	0.002149	0.023903
01491	9724071	-2.016794	0.856692	9.581023	0.000016	-0.004606	0.004613	-0.005042	0.002142	0.023953
01492	9724096	-1.996120	0.860855	9.581046	-0.005695	0.000602	0.004503	-0.004990	0.002152	0.023953
01493	9724121	-2.001582	0.860915	9.562451	-0.004385	0.001669	0.003113	-0.005004	0.002152	0.023906
01494	9724146	-2.002981	0.849887	9.569056	-0.001626	0.002629	-0.000881	-0.005007	0.002125	0.023923
01495	9724171	-2.008451	0.866395	9.567786	-0.006495	0.000192	0.007111	-0.005021	0.002166	0.023919
01496	9724196	-2.011336	0.838773	9.592929	-0.004125	0.000824	0.002666	-0.005028	0.002097	0.023982
01497	9724221	-2.009970	0.836045	9.594237	0.002238	-0.000641	0.003679	-0.005025	0.002090	0.023986
01498	9724246	-1.997495	0.832016	9.561035	-0.005740	0.001127	0.001317	-0.004994	0.002080	0.023903
01499	9724271	-1.983708	0.844434	9.565065	-0.006893	0.003962	0.005576	-0.004959	0.002111	0.023913
01500	9724296	-1.974105	0.847076	9.577035	-0.006144	0.003138	0.002649	-0.004935	0.002118	0.023943
01501	9724321	-2.003007	0.832047	9.568995	-0.004022	-0.000767	0.003247	-0.005008	0.002080	0.023922
01502	9724346	-1.998927	0.852574	9.585001	0.003311	0.002721	0.001073	-0.004997	0.002131	0.023963
01503	9724371	-2.034654	0.862223	9.581033	-0.000520	0.003387	0.002632	-0.005087	0.002156	0.023953
01504	9724396	-2.004413	0.852598	9.577027	-0.005695	0.001402	0.006412	-0.005011	0.002132	0.023943
01505	9724421	-1.997421	0.871943	9.553191	-0.004962	0.001001	0.001708	-0.004994	0.002180	0.023883
01506	9724446	-1.974056	0.827967	9.550409	0.001371	-0.000113	0.000358	-0.004935	0.002070	0.023876
01507	9724471	-1.976794	0.852651	9.561114	-0.005044	0.005032	0.000429	-0.004942	0.002132	0.023903
01508	9724496	-1.954814	0.866301	9.583746	0.001439	0.004941	0.003287	-0.004887	0.002166	0.023959
01509	9724521	-1.968568	0.836207	9.554419	0.004432	0.001609	-0.004080	-0.004921	0.002090	0.023886
01510	9724546	-2.004362	0.865017	9.569099	0.004989	-0.000572	0.004274	-0.005011	0.002162	0.023923
01511	9724571	-2.004289	0.869214	9.539895	-0.000934	0.005853	0.004350	-0.005011	0.002173	0.023850
01512	9724596	-1.972645	0.889720	9.575847	-0.001906	0.004442	0.000134	-0.004931	0.002224	0.023940
01513	9724621	-2.007077	0.884261	9.566510	-0.001650	0.005496	0.001664	-0.005018	0.002211	0.023916
01514	9724646	-1.984992	0.880199	9.547921	0.001557	0.003321	0.006598	-0.004962	0.002200	0.023870
01515	9724671	-1.927195	0.837642	9.527881	-0.001043	0.007571	0.002880	-0.004818	0.002094	0.023820
01516	9724696	-1.950578	0.851362	9.535892	-0.003201	0.005871	0.000572	-0.004876	0.002128	0.023840
01517	9724721	-2.037508	0.827770	9.599515	0.003007	0.009657	0.001572	-0.005093	0.002069	0.023999
01518	9724746	-2.099507	0.848329	9.622128	0.004502	0.002247	0.004195	-0.005249	0.002121	0.024055
01519	9724771	-2.019485	0.871894	9.573107	0.007853	0.001593	-0.000551	-0.005049	0.002180	0.023933
01520	9724796	-1.924387	0.896653	9.551991	0.001198	0.006305	0.000040	-0.004811	0.002242	0.023880
01521	9724821	-1.957485	0.845863	9.541177	-0.005075	0.007290	0.001003	-0.004893	0.002115	0.023853
01522	9724846	-2.015351	0.827942	9.549058	-0.008722	0.005814	0.005111	-0.005038	0.002070	0.023873
01523	9724871	-2.023691	0.845700	9.594261	-0.000697	0.000365	-0.001448	-0.005059	0.002114	0.023986
01524	9724896	-1.998900	0.841591	9.580986	-0.001213	0.001356	-0.000237	-0.004997	0.002104	0.023952
01525	9724921	-1.989282	0.847012	9.598281	0.002697	0.005166	0.001444	-0.004973	0.002117	0.023996
01526	9724946	-1.991960	0.859486	9.569105	0.001125	0.001028	0.003797	-0.004980	0.002149	0.023923
01527	9724971	-2.008440	0.851304	9.553121	-0.003314	-0.000501	0.004210	-0.005021	0.002128	0.023883
01528	9724996	-2.023641	0.862268	9.570411	-0.003786	0.002848	0.000565	-0.005059	0.002156	0.023926
01529	9725021	-1.979585	0.856742	9.571754	-0.005180	0.002812	0.002150	-0.004949	0.002142	0.023929
01530	9725046	-2.000291	0.853907	9.598295	-0.003979	0.004964	0.004387	-0.005001	0.002135	0.023996
01531	9725071	-1.983779	0.844339	9.583652	-0.000924	0.007474	0.000903	-0.004959	0.002111	0.023959
01532	9725096	-2.012627	0.840263	9.570345	-0.003846	0.007646	0.003491	-0.005031	0.002101	0.023926
01533	9725121	-2.000214	0.847107	9.567730	-0.000358	0.003186	0.006266	-0.005000	0.002118	0.023919
01534	9725146	-1.993324	0.865034	9.553173	-0.003263	0.002880	0.002675	-0.004983	0.002163	0.023883
01535	9725171	-1.990548	0.881505	9.569170	-0.001465	0.004695	-0.000311	-0.004976	0.002204	0.023923
01536	9725196	-2.002914	0.877372	9.563841	-0.004195	0.003785	0.007062	-0.005007	0.002194	0.023910
01537	9725221	-2.009912	0.866339	9.586368	-0.008102	0.001854	0.002187	-0.005025	0.002166	0.023966
01538	9725246	-1.986472	0.847101	9.571718	-0.007258	-0.003552	0.001311	-0.004966	0.002118	0.023929
01539	9725271	-1.990574	0.847158	9.561080	-0.003339	0.005989	0.000377	-0.004976	0.002118	0.023903
01540	9725296	-1.982330	0.858113	9.567768	-0.002286	0.000918	0.000264	-0.004956	0.002145	0.023919
01541	9725321	-1.994729	0.866398	9.569110	0.001177	0.003481	0.000225	-0.004987	0.002166	0.023923
01544	9725346	-2.005683	0.878808	9.562511	0.000788	0.006312	0.004736	-0.005014	0.002197	0.023906
01545	9725371	-2.007071	0.870521	9.563808	0.000215	-0.001794	0.004165	-0.005018	0.002176	0.023910
01546	9725396	-1.997486	0.844410	9.555752	-0.007312	0.002895	0.007418	-0.004994	0.002111	0.023889
01547	9725421	-1.986429	0.855441	9.553147	-0.008549	0.005975	0.003012	-0.004966	0.002139	0.023883
01548	9725446	-1.982307	0.847191	9.553124	-0.003053	0.005709	0.002736	-0.004956	0.002118	0.023883
01549	9725471	-1.982275	0.859553	9.550510	0.002025	0.002430	0.007306	-0.004956	0.002149	0.023876
01550	9725496	-1.954718	0.849997	9.537219	0.002868	0.001684	0.000237	-0.004887	0.002125	0.023843
01551	9725521	-1.990587	0.838929	9.558401	0.001281	0.005201	0.007871	-0.004976	0.002097	0.023896
01552	9725546	-2.015387	0.845731	9.574342	0.000593	0.009096	0.002320	-0.005038	0.002114	0.023936
01553	9725571	-2.060875	0.863488	9.607592	0.006922	0.003165	0.005361	-0.005152	0.002158	0.024019
01554	9725596	-2.060853	0.869076	9.587679	-0.001462	0.001624	0.008604	-0.005152	0.002173	0.023969
01555	9725621	-2.008493	0.866317	9.587705	0.001667	0.001696	0.001052	-0.005021	0.002166	0.023969
01556	9725646	-1.958892	0.859560	9.553173	0.002162	-0.002068	0.006990	-0.004897	0.002149	0.023883
01557	9725671	-1.976746	0.834900	9.529182	-0.001487	-0.000273	0.002444	-0.004942	0.002087	0.023823
01558	9725696	-1.982189	0.862444	9.515985	-0.002457	0.000310	0.002490	-0.004955	0.002156	0.023790
01559	9725721	-1.980879	0.832175	9.527845	-0.001498	0.000365	0.002053	-0.004952	0.002080	0.023820
01560	9725746	-1.945196	0.814168	9.555688	-0.000234	0.003941	0.000592	-0.004863	0.002035	0.023889
01561	9725771	-1.976872	0.847053	9.590314	0.001332	0.005046	0.005575	-0.004942	0.002118	0.023976
01562	9725796	-1.985021	0.885682	9.555897	-0.003915	0.005516	-0.001030	-0.004962	0.002214	0.023890
01563	9725821	-2.037447	0.870452	9.593013	0.004552	0.003830	-0.001343	-0.005094	0.002176	0.023983
01564	9725846	-2.013935	0.892495	9.562548	-0.000957	0.004561	-0.000617	-0.005035	0.002231	0.023906
01565	9725871	-1.965777	0.851319	9.553145	-0.002891	0.001730	-0.001396	-0.004914	0.002128	0.023883
01566	9725896	-1.949266	0.852608	9.567770	-0.006358	0.006683	-0.001045	-0.004873	0.002132	0.023919
01567	9725921	-2.015401	0.836147	9.566354	-0.005464	0.004809	0.002655	-0.005038	0.002091	0.023916
01568	9725946	-2.040227	0.816880	9.575566	-0.002286	0.007093	0.005285	-0.005100	0.002042	0.023939
01569	9725971	-1.998841	0.859556	9.561120	0.002144	0.004563	-0.003976	-0.004997	0.002149	0.023903
01570	9725996	-1.976853	0.841625	9.569039	0.004812	0.002132	-0.003441	-0.004942	0.002104	0.023923
01571	9726021	-1.945084	0.862319	9.539912	0.002752	0.004423	-0.000967	-0.004863	0.002156	0.023850
01572	9726046	-1.936761	0.845961	9.511974	0.000028	0.003886	0.001428	-0.004842	0.002115	0.023780
01573	9726071	-1.946438	0.874722	9.543936	-0.004721	0.005174	0.001262	-0.004866	0.002187	0.023860
01574	9726096	-2.058325	0.857711	9.680619	-0.005168	0.003603	0.003675	-0.005146	0.002144	0.024202
01575	9726121	-2.088446	0.874457	9.619565	0.000092	0.004070	0.000972	-0.005221	0.002186	0.024049
01576	9726146	-2.056728	0.859423	9.590307	-0.006916	0.006375	0.000536	-0.005142	0.002149	0.023976
01577	9726171	-1.978083	0.852815	9.515963	-0.004819	0.000384	0.003110	-0.004945	0.002132	0.023790
01578	9726196	-1.990527	0.840410	9.529184	-0.005046	0.002828	0.003362	-0.004976	0.002101	0.023823
01579	9726221	-2.005759	0.855360	9.574389	-0.003695	-0.000480	-0.002487	-0.005014	0.002139	0.023936
01580	9726246	-1.998939	0.825029	9.592886	-0.002520	0.003088	-0.000183	-0.004997	0.002063	0.023982
01581	9726271	-1.975490	0.840202	9.578340	-0.001921	0.006196	0.001030	-0.004939	0.002101	0.023946
01582	9726296	-1.987886	0.825111	9.576955	0.000535	0.003396	-0.000867	-0.004970	0.002063	0.023942
01583	9726321	-2.000210	0.827954	9.551723	0.008646	0.003119	-0.001565	-0.005000	0.002070	0.023879
01584	9726346	-1.982302	0.847191	9.553124	0.015338	-0.000100	-0.001638	-0.004956	0.002118	0.023883
01585	9726371	-1.989207	0.848542	9.555786	0.006600	0.004897	0.001223	-0.004973	0.002121	0.023890
01586	9726396	-1.986530	0.841542	9.583647	0.006454	0.001813	0.000776	-0.004966	0.002104	0.023959
01587	9726421	-1.996071	0.871888	9.563816	-0.003462	0.001471	-0.001410	-0.004990	0.002180	0.023910
01588	9726446	-2.005677	0.884318	9.554553	-0.006376	0.005047	0.001630	-0.005014	0.002211	0.023886
01589	9726471	-2.015441	0.856659	9.599623	-0.010210	0.000919	0.000076	-0.005039	0.002142	0.023999
01590	9726496	-1.996108	0.877373	9.575784	-0.005719	0.004949	0.003034	-0.004990	0.002194	0.023939
01591	9726521	-1.975381	0.854088	9.543855	-0.001888	0.002962	-0.000052	-0.004938	0.002135	0.023860
01592	9726546	-1.961649	0.866376	9.566486	-0.001031	0.005466	-0.000435	-0.004904	0.002166	0.023916
01593	9726571	-1.987765	0.869185	9.553194	-0.002195	0.003371	0.001089	-0.004969	0.002173	0.023883
01594	9726596	-2.014007	0.873193	9.578425	-0.008923	0.001417	0.003324	-0.005035	0.002183	0.023946
01595	9726621	-1.975313	0.909097	9.538718	-0.004534	0.001310	0.000626	-0.004938	0.002273	0.023847
01596	9726646	-1.909270	0.847335	9.517292	-0.003430	0.012450	0.002539	-0.004773	0.002118	0.023793
01597	9726671	-1.985202	0.831832	9.614164	-0.004014	0.006436	-0.004020	-0.004963	0.002080	0.024035
01598	9726696	-2.069248	0.811201	9.616701	-0.000986	0.005814	-0.002471	-0.005173	0.002028	0.024042
01599	9726721	-2.095316	0.803118	9.582139	-0.003795	0.003430	0.001010	-0.005238	0.002008	0.023955
01600	9726746	-1.996181	0.814139	9.567616	-0.007381	0.003892	0.001493	-0.004990	0.002036	0.023919
01601	9726771	-1.954859	0.840215	9.583652	0.001338	0.004205	-0.002451	-0.004887	0.002101	0.023959
01602	9726796	-1.972661	0.854053	9.554482	-0.001489	0.005119	-0.001708	-0.004931	0.002135	0.023886
01603	9726821	-1.993309	0.856783	9.558465	0.002474	0.002967	0.000745	-0.004983	0.002142	0.023896
01604	9726846	-2.011143	0.876090	9.543914	-0.002724	0.003408	-0.000125	-0.005028	0.002190	0.023860
01605	9726871	-2.004259	0.893911	9.550609	-0.005369	0.001493	0.000367	-0.005011	0.002235	0.023877
01606	9726896	-1.964335	0.899424	9.554633	-0.008288	0.002611	-0.002652	-0.004911	0.002249	0.023887
01607	9726921	-1.929888	0.880286	9.529344	-0.006400	0.006263	0.000611	-0.004825	0.002201	0.023823
01608	9726946	-1.939536	0.848713	9.511981	-0.006342	0.008576	0.005133	-0.004849	0.002122	0.023780
01609	9726971	-1.958795	0.854189	9.514643	-0.007397	0.005321	0.002259	-0.004897	0.002136	0.023787
01610	9726996	-1.925752	0.859720	9.515996	-0.008404	0.005749	0.004607	-0.004814	0.002150	0.023790
01611	9727021	-1.906514	0.818502	9.499946	0.005460	0.014071	-0.000067	-0.004766	0.002046	0.023750
01612	9727046	-2.032049	0.874340	9.646152	0.000358	0.009802	-0.001952	-0.005080	0.002186	0.024115
01613	9727071	-2.121529	0.852442	9.627444	0.001799	-0.000973	0.003284	-0.005304	0.002131	0.024069
01614	9727096	-2.084170	0.889756	9.571798	-0.000224	0.001734	0.003970	-0.005210	0.002224	0.023930
01615	9727121	-1.993300	0.900760	9.569237	-0.000289	0.006063	0.004984	-0.004983	0.002252	0.023923
01616	9727146	-1.964403	0.875975	9.570491	-0.004072	0.006919	-0.001664	-0.004911	0.002190	0.023926
01617	9727171	-1.983673	0.855408	9.554475	-0.008562	0.006215	0.001992	-0.004959	0.002139	0.023886
01618	9727196	-1.996092	0.822474	9.547714	-0.009875	0.007345	0.000198	-0.004990	0.002056	0.023869
01619	9727221	-1.978212	0.841617	9.565065	-0.009744	0.002833	-0.001197	-0.004945	0.002104	0.023913
01620	9727246	-2.007142	0.847086	9.575692	-0.008149	0.004415	0.002123	-0.005018	0.002118	0.023939
01621	9727271	-1.986446	0.856780	9.566434	0.002480	0.005583	-0.000471	-0.004966	0.002142	0.023916
01622	9727296	-1.978153	0.833502	9.530505	-0.000779	0.004277	-0.002335	-0.004945	0.002084	0.023826
01623	9727321	-1.961591	0.859632	9.530597	-0.004749	0.007373	0.002150	-0.004904	0.002149	0.023827
01624	9727346	-1.978216	0.840276	9.565048	-0.002618	0.008814	0.000571	-0.004945	0.002101	0.023913
01625	9727371	-2.014149	0.867534	9.630205	0.001691	0.005844	0.003730	-0.005035	0.002169	0.024076
01626	9727396	-2.021018	0.838685	9.616826	0.003973	0.008665	-0.000203	-0.005052	0.002097	0.024042
01627	9727421	-2.042971	0.820979	9.579575	-0.003375	0.006025	0.002860	-0.005107	0.002053	0.023949
01628	9727446	-2.015402	0.804599	9.548975	-0.005659	0.006661	0.006217	-0.005038	0.002012	0.023872
01629	9727471	-1.996100	0.804603	9.543675	-0.005136	0.001964	0.005528	-0.004990	0.002012	0.023859
01630	9727496	-1.975383	0.856855	9.549178	-0.002967	0.003353	0.007899	-0.004938	0.002142	0.023873
01631	9727521	-1.987812	0.858174	9.555812	-0.001271	0.002499	0.003201	-0.004969	0.002145	0.023890
01632	9727546	-1.982309	0.889728	9.578501	-0.003609	0.004351	0.002161	-0.004956	0.002224	0.023946
01633	9727571	-1.980913	0.882868	9.566525	-0.000353	0.003618	0.000918	-0.004952	0.002207	0.023916
01634	9727596	-1.978126	0.847222	9.539852	-0.001162	0.006324	0.001289	-0.004945	0.002118	0.023850
01635	9727621	-1.993276	0.851362	9.542510	-0.009353	0.007349	0.008608	-0.004983	0.002129	0.023856
01636	9727646	-1.965724	0.840428	9.527869	-0.006565	0.004649	0.008446	-0.004914	0.002101	0.023820
01637	9727671	-1.969965	0.836160	9.565036	-0.003694	0.011678	0.006549	-0.004925	0.002090	0.023913
01638	9727696	-2.000416	0.833124	9.639399	-0.000487	0.002918	0.004922	-0.005001	0.002083	0.024099
01639	9727721	-2.034725	0.827788	9.592877	-0.001881	0.003688	0.001284	-0.005087	0.002070	0.023982
01640	9727746	-2.034698	0.810067	9.552973	0.005154	0.005287	0.005606	-0.005087	0.002025	0.023882
01641	9727771	-1.987783	0.821184	9.529125	-0.003688	-0.000735	0.005291	-0.004969	0.002053	0.023823
01642	9727796	-1.961647	0.814274	9.526456	-0.001548	0.002658	0.008865	-0.004904	0.002036	0.023816
01643	9727821	-1.953434	0.837535	9.565053	-0.000133	0.003326	0.010404	-0.004884	0.002094	0.023913
01646	9727846	-1.985085	0.859483	9.567778	0.005747	0.002782	0.009240	-0.004963	0.002148	0.023919
01647	9727871	-1.960356	0.877263	9.602373	0.000088	0.000265	0.007546	-0.004901	0.002193	0.024006
01648	9727896	-1.945008	0.889901	9.534698	0.006662	-0.000358	0.005621	-0.004863	0.002225	0.023837
01649	9727921	-1.961542	0.870622	9.526658	0.006922	0.006641	0.005747	-0.004904	0.002176	0.023817
01650	9727946	-2.020931	0.873134	9.598348	0.007635	0.004844	0.010018	-0.005052	0.002183	0.023996
01651	9727971	-2.066320	0.862222	9.577040	0.001428	0.000112	0.007044	-0.005166	0.002155	0.023943
01652	9727996	-2.041473	0.856876	9.538507	-0.000235	0.002660	0.005504	-0.005104	0.002142	0.023846
01653	9728021	-2.022244	0.841679	9.555736	-0.006367	0.006174	0.011817	-0.005055	0.002104	0.023889
01654	9728046	-2.001627	0.832003	9.570321	-0.005884	0.006385	0.008892	-0.005004	0.002080	0.023926
01655	9728071	-1.975401	0.848590	9.542505	-0.002694	-0.000466	0.010137	-0.004939	0.002121	0.023856
01656	9728096	-1.971284	0.843067	9.550460	-0.002943	0.005461	0.007388	-0.004928	0.002108	0.023876
01657	9728121	-1.968561	0.862244	9.571771	0.006731	0.000055	0.007279	-0.004921	0.002155	0.023929
01658	9728146	-1.954794	0.832025	9.566375	0.003041	0.004935	0.011000	-0.004887	0.002080	0.023916
01659	9728171	-1.965809	0.848510	9.565094	0.005874	0.008576	0.006247	-0.004914	0.002121	0.023913
01660	9728196	-1.987805	0.837587	9.545112	-0.001292	0.009896	0.008035	-0.004969	0.002094	0.023863
01661	9728221	-2.015462	0.833264	9.596892	-0.000544	0.006716	0.006132	-0.005038	0.002083	0.023992
01662	9728246	-2.051260	0.859400	9.602255	-0.003746	0.006162	0.011328	-0.005128	0.002149	0.024006
01663	9728271	-2.023655	0.889681	9.587759	-0.005898	0.007279	0.008573	-0.005059	0.002224	0.023969
01664	9728296	-1.997502	0.863576	9.586367	0.005955	0.008273	0.007327	-0.004994	0.002159	0.023966
01665	9728321	-1.987828	0.840290	9.554430	0.007015	0.003433	0.009954	-0.004969	0.002100	0.023886
01666	9728346	-1.969904	0.843088	9.538510	-0.002968	0.010064	0.006367	-0.004924	0.002108	0.023846
01667	9728371	-2.003060	0.842921	9.592943	-0.010274	0.005031	0.008030	-0.005008	0.002108	0.023982
01668	9728396	-2.030633	0.819487	9.606133	-0.009005	0.006664	0.010140	-0.005076	0.002049	0.024015
01669	9728421	-2.001626	0.853959	9.582349	-0.005396	0.006193	0.012971	-0.005004	0.002135	0.023956
01670	9728446	-2.004284	0.854135	9.535862	-0.000010	0.009295	0.014602	-0.005010	0.002135	0.023840
01671	9728471	-2.025047	0.823767	9.571611	0.005409	0.002952	0.007899	-0.005063	0.002059	0.023929
01672	9728496	-1.989118	0.876070	9.550561	0.003850	-0.000094	0.006039	-0.004973	0.002190	0.023876
01673	9728521	-1.993279	0.892502	9.559908	0.006755	0.005421	0.005682	-0.004983	0.002231	0.023900
01674	9728546	-2.015447	0.853894	9.592970	-0.003244	0.000642	0.007449	-0.005039	0.002135	0.023982
01675	9728571	-2.015479	0.837400	9.596900	-0.009792	-0.000015	0.009820	-0.005039	0.002094	0.023992
01676	9728596	-1.990542	0.854087	9.553145	-0.007783	0.003840	0.006078	-0.004976	0.002135	0.023883
01677	9728621	-2.020899	0.838907	9.566344	-0.004759	-0.003375	0.009035	-0.005052	0.002097	0.023916
01678	9728646	-1.990551	0.859567	9.555810	-0.002570	-0.003473	0.010839	-0.004977	0.002149	0.023889
01679	9728671	-1.986435	0.860900	9.565123	0.007808	-0.006483	0.008309	-0.004966	0.002152	0.023913
01680	9728696	-1.989259	0.860786	9.587694	0.008690	-0.001714	0.001182	-0.004973	0.002152	0.023969
01681	9728721	-2.016822	0.853871	9.599614	0.004251	-0.006436	0.002931	-0.005042	0.002135	0.023999
01682	9728746	-2.018188	0.830598	9.575627	-0.002179	-0.007766	0.003579	-0.005046	0.002077	0.023939
01683	9728771	-2.013904	0.812975	9.511820	-0.005472	-0.008494	0.006041	-0.005035	0.002033	0.023779
01684	9728796	-2.026368	0.822486	9.537076	-0.014640	-0.007622	0.003482	-0.005066	0.002057	0.023843
01685	9728821	-2.009926	0.836131	9.578303	-0.006224	-0.005746	0.004889	-0.005025	0.002090	0.023946
01686	9728846	-1.983742	0.873131	9.601026	-0.004719	-0.007078	0.006109	-0.004960	0.002183	0.024003
01687	9728871	-2.003127	0.835922	9.626132	0.001460	-0.009915	0.005780	-0.005008	0.002090	0.024065
01688	9728896	-2.033416	0.838714	9.610176	0.004905	-0.009003	0.007141	-0.005084	0.002097	0.024025
01689	9728921	-2.041577	0.807265	9.560933	-0.000732	-0.014809	0.009453	-0.005104	0.002018	0.023902
01690	9728946	-1.958815	0.786927	9.489186	-0.006844	-0.012410	0.009859	-0.004897	0.001967	0.023723
01691	9728971	-1.964436	0.819697	9.545075	-0.008790	-0.010355	0.009650	-0.004911	0.002049	0.023863
01692	9728996	-1.956189	0.877279	9.597073	0.000273	-0.011316	0.006098	-0.004891	0.002193	0.023993
01693	9729021	-1.988045	0.850967	9.646101	0.002502	-0.013393	0.001332	-0.004971	0.002127	0.024115
01694	9729046	-2.030603	0.837396	9.598230	-0.001964	-0.012709	0.003965	-0.005077	0.002094	0.023995
01695	9729071	-2.007087	0.818367	9.535739	-0.002924	-0.007257	0.007270	-0.005018	0.002046	0.023839
01696	9729096	-1.942324	0.837629	9.527886	-0.009242	-0.008437	0.012957	-0.004856	0.002094	0.023820
01697	9729121	-1.940989	0.867763	9.566493	-0.008127	-0.009254	0.014241	-0.004853	0.002170	0.023916
01698	9729146	-1.985060	0.854045	9.558448	-0.000338	-0.010534	0.011244	-0.004963	0.002135	0.023896
01699	9729171	-2.026492	0.822302	9.591531	-0.005706	-0.011653	0.009100	-0.005067	0.002056	0.023979
01700	9729196	-2.058235	0.807063	9.615372	0.000313	-0.013450	0.014046	-0.005146	0.002018	0.024038
01701	9729221	-2.018264	0.822287	9.595520	-0.007121	-0.009161	0.012270	-0.005046	0.002056	0.023989
01702	9729246	-2.008537	0.855295	9.598293	-0.001711	-0.014326	0.014742	-0.005022	0.002138	0.023996
01703	9729271	-1.975481	0.847065	9.586336	-0.001621	-0.014478	0.017542	-0.004939	0.002118	0.023966
01704	9729296	-1.964434	0.856750	9.565118	0.005649	-0.010917	0.015752	-0.004911	0.002142	0.023913
01705	9729321	-1.970019	0.845641	9.594300	0.000839	-0.011152	0.012845	-0.004925	0.002114	0.023986
01706	9729346	-1.998947	0.842874	9.606230	-0.000966	-0.018556	0.011374	-0.004998	0.002107	0.024015
01707	9729371	-2.019645	0.846967	9.611534	-0.002562	-0.017563	0.013396	-0.005050	0.002117	0.024029
01708	9729396	-2.001686	0.845706	9.592950	-0.000919	-0.013803	0.011307	-0.005005	0.002114	0.023982
01709	9729421	-1.964586	0.816687	9.614127	-0.003231	-0.012960	0.011988	-0.004912	0.002042	0.024035
01710	9729446	-1.964564	0.808549	9.599482	0.000702	-0.021602	0.013494	-0.004912	0.002021	0.023999
01711	9729471	-1.979747	0.829041	9.624787	0.003538	-0.018902	0.014085	-0.004950	0.002072	0.024062
01712	9729496	-1.981102	0.835943	9.622153	0.006096	-0.015657	0.020662	-0.004953	0.002090	0.024055
01713	9729521	-1.987981	0.851024	9.631491	0.008628	-0.020419	0.016035	-0.004971	0.002127	0.024079
01714	9729546	-2.010004	0.841441	9.615511	0.009762	-0.018400	0.018142	-0.005026	0.002103	0.024039
01715	9729571	-2.003096	0.826409	9.595547	0.003189	-0.019683	0.009495	-0.005008	0.002066	0.023989
01716	9729596	-2.002994	0.838874	9.567696	0.002816	-0.017871	0.014459	-0.005008	0.002097	0.023919
01717	9729621	-1.978248	0.818227	9.570301	0.003935	-0.013889	0.018729	-0.004946	0.002045	0.023926
01718	9729646	-1.943863	0.823668	9.584944	0.003520	-0.015818	0.018476	-0.004860	0.002059	0.023962
01719	9729671	-1.946666	0.824965	9.610182	0.012897	-0.015195	0.017658	-0.004867	0.002062	0.024025
01720	9729696	-1.994955	0.822077	9.646001	0.018543	-0.018080	0.014710	-0.004988	0.002055	0.024115
01721	9729721	-2.010059	0.786482	9.603380	0.014281	-0.014578	0.016710	-0.005026	0.001966	0.024008
01722	9729746	-1.992047	0.827829	9.582264	0.015947	-0.019020	0.015964	-0.004981	0.002069	0.023956
01723	9729771	-1.969979	0.825116	9.570329	0.012842	-0.014314	0.020905	-0.004925	0.002062	0.023926
01724	9729796	-2.005772	0.855343	9.581024	0.007679	-0.015287	0.019906	-0.005015	0.002138	0.023952
01725	9729821	-1.967185	0.867699	9.579764	0.008450	-0.017527	0.016288	-0.004919	0.002169	0.023949
01726	9729846	-1.981022	0.826453	9.579620	0.006627	-0.015932	0.015442	-0.004953	0.002066	0.023949
01727	9729871	-1.976871	0.812793	9.555670	-0.002396	-0.009446	0.018868	-0.004943	0.002032	0.023889
01728	9729896	-1.975548	0.809964	9.584876	-0.001040	-0.007631	0.015824	-0.004939	0.002025	0.023962
01729	9729921	-1.963193	0.829074	9.614172	0.002006	-0.013928	0.015724	-0.004908	0.002073	0.024035
01730	9729946	-1.987954	0.849713	9.610239	-0.000282	-0.015499	0.013988	-0.004970	0.002124	0.024025
01731	9729971	-1.986631	0.824946	9.622109	0.004959	-0.016627	0.011927	-0.004967	0.002062	0.024055
01732	9729996	-2.018252	0.808568	9.587502	0.001314	-0.009777	0.010741	-0.005046	0.002021	0.023969
01733	9730021	-1.971393	0.816861	9.575605	0.000808	-0.014675	0.009282	-0.004929	0.002042	0.023939
01734	9730046	-1.972732	0.851190	9.578372	0.002535	-0.015946	0.014198	-0.004932	0.002128	0.023946
01735	9730071	-1.968636	0.862115	9.610292	0.002553	-0.011916	0.008915	-0.004922	0.002155	0.024026
01736	9730096	-1.975546	0.849754	9.598289	0.001247	-0.014302	0.008583	-0.004939	0.002124	0.023996
01737	9730121	-1.986569	0.814055	9.586221	0.006641	-0.009987	0.005756	-0.004967	0.002035	0.023966
01738	9730146	-1.983831	0.815426	9.600831	0.003847	-0.014000	0.007269	-0.004960	0.002038	0.024002
01739	9730171	-1.974197	0.840149	9.602239	0.002743	-0.014183	0.012289	-0.004936	0.002100	0.024006
01740	9730196	-1.987913	0.858004	9.598319	0.009227	-0.015116	0.006354	-0.004970	0.002145	0.023996
01741	9730221	-1.967281	0.826381	9.591576	0.008614	-0.009471	0.005773	-0.004919	0.002066	0.023979
01742	9730246	-1.961775	0.847012	9.599616	0.011373	-0.015494	0.002807	-0.004905	0.002117	0.023999
01743	9730271	-1.972681	0.843011	9.563744	0.004336	-0.014041	0.004916	-0.004932	0.002107	0.023909
01744	9730296	-1.950668	0.869111	9.570479	0.000019	-0.012252	0.003862	-0.004877	0.002173	0.023926
01745	9730321	-1.989304	0.822289	9.591556	0.003733	-0.009063	0.011083	-0.004974	0.002056	0.023979
01748	9730346	-1.970013	0.815486	9.572955	0.004873	-0.007878	0.004850	-0.004925	0.002039	0.023932
01749	9730371	-1.941131	0.807191	9.586213	0.000784	-0.007007	0.006540	-0.004853	0.002018	0.023965
01750	9730396	-1.931391	0.844381	9.565110	0.011156	-0.012688	0.005542	-0.004829	0.002111	0.023913
01751	9730421	-1.917684	0.815478	9.570320	0.013934	-0.004110	0.004029	-0.004794	0.002038	0.023926
01752	9730446	-1.946619	0.827776	9.591596	0.008015	-0.007659	0.006597	-0.004867	0.002069	0.023979
01753	9730471	-1.947945	0.849802	9.590341	0.016622	-0.010434	0.006476	-0.004870	0.002124	0.023976
01754	9730496	-1.958954	0.840256	9.566394	0.015689	-0.007969	0.000097	-0.004898	0.002100	0.023916
01755	9730521	-1.965793	0.852634	9.565100	0.012417	-0.009003	0.003318	-0.004915	0.002131	0.023913
01756	9730546	-1.945151	0.858107	9.562476	0.004613	-0.007418	0.005421	-0.004863	0.002145	0.023906
01757	9730571	-1.936975	0.844315	9.588992	0.007094	-0.002731	0.005567	-0.004843	0.002111	0.023972
01758	9730596	-1.925919	0.859444	9.583745	0.004314	-0.000858	-0.002034	-0.004815	0.002148	0.023959
01759	9730621	-1.949230	0.886985	9.565238	0.009370	-0.006020	-0.003269	-0.004873	0.002217	0.023913
01760	9730646	-1.943804	0.837481	9.567724	0.005633	-0.001767	0.001796	-0.004860	0.002094	0.023919
01761	9730671	-1.964450	0.827856	9.569016	0.003490	-0.002712	0.002794	-0.004911	0.002070	0.023923
01762	9730696	-1.986580	0.803113	9.579536	0.006397	-0.006028	0.000335	-0.004967	0.002008	0.023949
01763	9730721	-1.971476	0.798866	9.607422	0.008506	-0.003238	-0.001687	-0.004929	0.001997	0.024019
01764	9730746	-1.967276	0.857987	9.607611	0.007278	-0.007065	0.003849	-0.004918	0.002145	0.024019
01765	9730771	-1.969976	0.849824	9.582365	0.010930	-0.012165	0.002226	-0.004925	0.002124	0.023956
01766	9730796	-1.943803	0.853983	9.577079	0.014038	-0.009082	-0.001574	-0.004860	0.002135	0.023943
01767	9730821	-1.960288	0.873178	9.575810	0.013822	-0.009337	0.002821	-0.004901	0.002183	0.023940
01768	9730846	-1.968709	0.848276	9.622201	0.007226	-0.009033	0.001113	-0.004922	0.002120	0.024055
01769	9730871	-1.952190	0.835975	9.612863	-0.001471	-0.008766	0.000663	-0.004881	0.002090	0.024032
01770	9730896	-1.960550	0.811133	9.631365	-0.001137	-0.008991	-0.005266	-0.004902	0.002028	0.024078
01771	9730921	-1.932864	0.844218	9.615568	0.000346	-0.013889	0.001448	-0.004833	0.002111	0.024039
01772	9730946	-1.907889	0.854162	9.522638	0.010084	-0.011033	-0.003700	-0.004770	0.002135	0.023807
01773	9730971	-1.934194	0.842910	9.589001	0.012591	-0.006638	-0.001395	-0.004836	0.002107	0.023972
01774	9730996	-1.954854	0.838808	9.584991	0.012428	-0.014411	-0.005847	-0.004888	0.002097	0.023962
01775	9731021	-1.997411	0.854031	9.554473	0.007197	-0.011596	-0.006656	-0.004994	0.002135	0.023886
01776	9731046	-1.951870	0.920109	9.538766	-0.000128	-0.010736	-0.009771	-0.004880	0.002300	0.023847
01777	9731071	-1.950466	0.916045	9.522823	0.000726	-0.014146	-0.006263	-0.004877	0.002290	0.023807
01778	9731096	-1.950597	0.895223	9.570560	-0.002843	-0.007218	-0.006993	-0.004877	0.002238	0.023926
01779	9731121	-1.980938	0.858105	9.570422	-0.009401	-0.013740	-0.009780	-0.004953	0.002146	0.023926
01780	9731146	-1.979651	0.836103	9.583623	-0.005628	-0.010079	-0.009495	-0.004949	0.002090	0.023959
01781	9731171	-1.961699	0.856679	9.587704	0.001536	-0.017320	-0.007714	-0.004905	0.002142	0.023969
01782	9731196	-1.953459	0.836148	9.570366	0.010787	-0.016746	-0.015476	-0.004884	0.002090	0.023926
01783	9731221	-1.931384	0.844419	9.554473	0.013730	-0.017478	-0.008827	-0.004829	0.002111	0.023886
01784	9731246	-1.921738	0.844411	9.563777	0.013658	-0.017348	-0.016917	-0.004805	0.002111	0.023909
01785	9731271	-1.939583	0.862284	9.550542	0.008856	-0.018698	-0.013323	-0.004849	0.002156	0.023876
01786	9731296	-1.946460	0.871901	9.549245	0.003909	-0.017764	-0.007570	-0.004867	0.002180	0.023873
01787	9731321	-1.929857	0.874745	9.526691	-0.002655	-0.017503	-0.011954	-0.004825	0.002187	0.023817
01788	9731346	-1.924382	0.876139	9.533328	-0.001298	-0.019473	-0.014228	-0.004811	0.002190	0.023833
01789	9731371	-1.917574	0.880122	9.563896	0.001132	-0.019062	-0.020835	-0.004794	0.002200	0.023910
01790	9731396	-1.920346	0.867735	9.569164	0.002255	-0.019194	-0.016750	-0.004801	0.002169	0.023923
01791	9731421	-1.938175	0.889836	9.543989	0.003028	-0.020240	-0.018018	-0.004846	0.002225	0.023860
01792	9731446	-1.935425	0.866460	9.543924	0.001475	-0.015019	-0.024658	-0.004839	0.002166	0.023860
01793	9731471	-1.931366	0.859572	9.553192	0.003223	-0.015311	-0.022604	-0.004829	0.002149	0.023883
01794	9731496	-1.934113	0.851205	9.562470	0.001954	-0.018612	-0.020768	-0.004836	0.002128	0.023906
01795	9731521	-1.916181	0.866429	9.554551	-0.003992	-0.019675	-0.023420	-0.004791	0.002166	0.023886
01796	9731546	-1.920312	0.863708	9.541254	-0.011258	-0.019430	-0.020611	-0.004801	0.002160	0.023853
01797	9731571	-1.880334	0.867824	9.539976	-0.013487	-0.015019	-0.026299	-0.004701	0.002170	0.023850
01798	9731596	-1.891309	0.892616	9.529421	-0.008990	-0.012375	-0.025184	-0.004729	0.002232	0.023823
01799	9731621	-1.940916	0.884354	9.538660	-0.012076	-0.015673	-0.026739	-0.004853	0.002211	0.023847
01800	9731646	-1.961639	0.851342	9.546504	-0.010049	-0.014052	-0.025450	-0.004904	0.002129	0.023866
01801	9731671	-1.931376	0.862240	9.570469	-0.011778	-0.012475	-0.023426	-0.004829	0.002156	0.023926
01802	9731696	-1.906590	0.860921	9.561177	-0.006783	-0.007594	-0.026953	-0.004767	0.002153	0.023903
01803	9731721	-1.880425	0.825176	9.551791	0.001663	-0.012359	-0.027268	-0.004701	0.002063	0.023879
01804	9731746	-1.916393	0.812595	9.603525	-0.005774	-0.012863	-0.031278	-0.004791	0.002032	0.024009
01805	9731771	-1.942462	0.848415	9.590341	0.006831	-0.010780	-0.032514	-0.004856	0.002121	0.023976
01806	9731796	-1.934185	0.848479	9.575725	0.009103	-0.016622	-0.032237	-0.004836	0.002121	0.023939
01807	9731821	-1.968554	0.891019	9.593126	0.009929	-0.012906	-0.040643	-0.004922	0.002228	0.023983
01808	9731846	-2.001598	0.882799	9.582443	0.009151	-0.018783	-0.038736	-0.005004	0.002207	0.023956
01809	9731871	-1.980868	0.880173	9.547929	-0.003463	-0.014420	-0.039987	-0.004952	0.002201	0.023870
01810	9731896	-1.961623	0.891135	9.562570	-0.012454	-0.016317	-0.034894	-0.004904	0.002228	0.023906
01811	9731921	-1.967032	0.881601	9.538651	-0.013992	-0.017978	-0.038598	-0.004918	0.002205	0.023846
01812	9731946	-1.962972	0.904897	9.562622	-0.020458	-0.021717	-0.040047	-0.004908	0.002263	0.023906
01813	9731971	-1.961623	0.896619	9.570561	-0.029159	-0.017412	-0.040565	-0.004904	0.002243	0.023926
01814	9731996	-1.935428	0.874703	9.546601	-0.033017	-0.016849	-0.041930	-0.004839	0.002188	0.023866
01815	9732021	-1.943777	0.838955	9.551791	-0.033954	-0.018807	-0.035888	-0.004860	0.002099	0.023879
01816	9732046	-1.952119	0.818186	9.587571	-0.022562	-0.018775	-0.041085	-0.004881	0.002046	0.023969
01817	9732071	-1.901293	0.724897	9.566029	-0.000827	-0.023012	-0.047147	-0.004754	0.001813	0.023915
01818	9732096	-1.962470	0.634640	9.779550	0.055058	-0.030653	-0.050972	-0.004907	0.001585	0.024449
01819	9732121	-1.970249	0.861803	9.695279	0.066939	-0.033657	-0.057182	-0.004926	0.002153	0.024238
01820	9732146	-1.950572	0.955599	9.592018	0.063495	-0.032303	-0.053132	-0.004877	0.002387	0.023980
01821	9732171	-1.984491	1.007063	9.431473	0.023124	-0.030170	-0.047083	-0.004962	0.002517	0.023579
01822	9732196	-1.991282	0.981170	9.374271	-0.016706	-0.026834	-0.050460	-0.004979	0.002454	0.023435
01823	9732221	-1.944710	0.991843	9.463316	-0.059569	-0.025995	-0.041880	-0.004862	0.002482	0.023658
01824	9732246	-1.932630	0.919971	9.562696	-0.082758	-0.022571	-0.050533	-0.004832	0.002303	0.023906
01825	9732271	-1.916397	0.833218	9.608893	-0.085136	-0.024530	-0.048833	-0.004792	0.002086	0.024022
01826	9732296	-1.942771	0.756071	9.669716	-0.069916	-0.022267	-0.050625	-0.004857	0.001893	0.024174
01827	9732321	-1.966142	0.764336	9.655126	-0.036603	-0.030085	-0.054815	-0.004916	0.001912	0.024138
01828	9732346	-1.916484	0.742579	9.600625	-0.017980	-0.034484	-0.051604	-0.004792	0.001857	0.024001
01829	9732371	-1.877881	0.778266	9.595462	0.001661	-0.031979	-0.058205	-0.004696	0.001946	0.023988
01830	9732396	-1.890086	0.834751	9.558453	-0.000161	-0.035955	-0.062166	-0.004726	0.002087	0.023896
01831	9732421	-1.885865	0.840410	9.518624	-0.009833	-0.031273	-0.063007	-0.004715	0.002102	0.023796
01832	9732446	-1.900871	0.921523	9.517562	-0.022146	-0.026712	-0.059797	-0.004753	0.002305	0.023794
01833	9732471	-1.888406	0.894193	9.469658	-0.041795	-0.023153	-0.063775	-0.004722	0.002237	0.023674
01834	9732496	-1.855512	0.852841	9.502743	-0.053410	-0.018331	-0.060430	-0.004639	0.002134	0.023757
01835	9732521	-1.874892	0.801956	9.519828	-0.047585	-0.020389	-0.056052	-0.004688	0.002007	0.023799
01836	9732546	-1.852937	0.777126	9.534368	-0.040995	-0.017636	-0.064154	-0.004633	0.001944	0.023836
01837	9732571	-1.828338	0.745275	9.595372	-0.022788	-0.020252	-0.069933	-0.004571	0.001864	0.023988
01838	9732596	-1.840608	0.790798	9.551689	-0.011663	-0.016855	-0.069337	-0.004602	0.001978	0.023879
01839	9732621	-1.855745	0.778400	9.560931	-0.008148	-0.017039	-0.076507	-0.004640	0.001947	0.023902
01840	9732646	-1.852914	0.793623	9.538409	-0.006816	-0.016133	-0.075795	-0.004633	0.001985	0.023846
01841	9732671	-1.916268	0.799065	9.542379	-0.006241	-0.013870	-0.078602	-0.004791	0.001998	0.023856
01842	9732696	-1.927228	0.822492	9.537131	-0.013492	-0.016733	-0.073497	-0.004818	0.002057	0.023843
01843	9732721	-1.917605	0.848525	9.558480	-0.017542	-0.011730	-0.074360	-0.004794	0.002122	0.023896
01844	9732746	-1.884614	0.849791	9.579757	-0.025310	-0.012718	-0.080658	-0.004712	0.002126	0.023949
01845	9732771	-1.872379	0.761775	9.587435	-0.039218	-0.003430	-0.075108	-0.004681	0.001906	0.023968
01846	9732796	-1.926026	0.794796	9.588838	-0.043964	-0.004327	-0.079225	-0.004815	0.001989	0.023972
01847	9732821	-1.909326	0.778606	9.509108	-0.039464	-0.005457	-0.077274	-0.004773	0.001948	0.023773
01850	9732846	-1.919428	0.721639	9.664311	-0.032271	-0.001238	-0.073719	-0.004798	0.001806	0.024161
01851	9732871	-1.972929	0.823472	9.651328	-0.022082	-0.000782	-0.076383	-0.004932	0.002060	0.024128
01852	9732896	-1.983860	0.855113	9.636830	-0.017902	-0.006050	-0.076281	-0.004960	0.002139	0.024092
01853	9732921	-1.927308	0.821039	9.561035	-0.022453	-0.006388	-0.077842	-0.004818	0.002054	0.023902
01854	9732946	-1.888846	0.797511	9.594186	-0.023584	-0.000757	-0.079127	-0.004722	0.001995	0.023985
01855	9732971	-1.913645	0.808423	9.618121	-0.023365	-0.002566	-0.079888	-0.004784	0.002022	0.024045
01856	9732996	-1.960468	0.812608	9.606150	-0.032906	-0.007120	-0.084294	-0.004901	0.002033	0.024015
01857	9733021	-1.909460	0.830537	9.588969	-0.025608	0.003397	-0.076413	-0.004773	0.002078	0.023972
01858	9733046	-1.891737	0.754823	9.612636	-0.023200	0.005005	-0.068112	-0.004729	0.001888	0.024032
01859	9733071	-1.926159	0.804168	9.656621	-0.027928	0.001557	-0.075343	-0.004815	0.002012	0.024141
01860	9733096	-1.964713	0.826134	9.667287	-0.026608	0.004749	-0.072217	-0.004911	0.002067	0.024168
01861	9733121	-1.941204	0.831765	9.627465	-0.015567	0.005117	-0.072446	-0.004853	0.002080	0.024069
01862	9733146	-1.926182	0.743797	9.616562	-0.009379	0.012542	-0.073296	-0.004815	0.001860	0.024041
01863	9733171	-1.898776	0.735352	9.672327	-0.016105	0.010647	-0.072010	-0.004746	0.001839	0.024181
01864	9733196	-1.920634	0.811102	9.631399	-0.024199	0.016138	-0.066409	-0.004801	0.002029	0.024079
01865	9733221	-1.937016	0.800297	9.590185	-0.022593	0.019139	-0.059204	-0.004842	0.002002	0.023976
01866	9733246	-1.965892	0.814078	9.584902	-0.015908	0.016817	-0.059086	-0.004914	0.002036	0.023962
01867	9733271	-1.952181	0.809926	9.587541	-0.008571	0.021771	-0.058013	-0.004880	0.002025	0.023969
01868	9733296	-1.810318	0.761912	9.556923	-0.007805	0.028105	-0.059852	-0.004525	0.001905	0.023892
01869	9733321	-1.770411	0.739928	9.542260	-0.003600	0.026959	-0.063065	-0.004425	0.001850	0.023856
01870	9733346	-1.854347	0.771581	9.547631	-0.003847	0.033201	-0.057727	-0.004635	0.001929	0.023869
01871	9733371	-1.910966	0.737056	9.586002	0.001793	0.038669	-0.052531	-0.004776	0.001843	0.023965
01872	9733396	-1.931604	0.797364	9.628689	0.006363	0.042039	-0.050268	-0.004828	0.001994	0.024072
01873	9733421	-1.813101	0.731683	9.548854	0.012213	0.045381	-0.045633	-0.004531	0.001829	0.023872
01874	9733446	-1.764968	0.716540	9.548828	0.027528	0.052458	-0.055772	-0.004411	0.001791	0.023872
01875	9733471	-1.732988	0.717009	9.425326	0.039947	0.059821	-0.051984	-0.004331	0.001792	0.023564
01876	9733496	-1.778419	0.743087	9.441332	0.045869	0.064686	-0.052325	-0.004444	0.001857	0.023604
01877	9733521	-1.760357	0.858552	9.439072	0.045522	0.076854	-0.054374	-0.004398	0.002145	0.023598
01878	9733546	-1.780932	0.817485	9.391116	0.039592	0.084133	-0.053090	-0.004450	0.002043	0.023478
01879	9733571	-1.814001	0.924454	9.465814	0.014746	0.092347	-0.059535	-0.004532	0.002311	0.023665
01880	9733596	-1.829244	0.890023	9.477647	-0.000256	0.106274	-0.053295	-0.004570	0.002225	0.023695
01881	9733621	-1.852761	0.836366	9.488080	-0.029501	0.119631	-0.055006	-0.004628	0.002092	0.023721
01882	9733646	-1.894320	0.767354	9.572840	-0.038002	0.123610	-0.055715	-0.004732	0.001920	0.023933
01883	9733671	-1.858670	0.761698	9.614007	-0.027491	0.130180	-0.053661	-0.004643	0.001905	0.024036
01884	9733696	-1.802399	0.714768	9.661688	-0.014940	0.129494	-0.059739	-0.004502	0.001788	0.024155
01885	9733721	-1.748577	0.661494	9.564582	0.010286	0.138965	-0.055659	-0.004367	0.001654	0.023912
01886	9733746	-1.936175	0.684219	9.738562	0.007236	0.151068	-0.061372	-0.004836	0.001711	0.024347
01887	9733771	-2.029508	0.849409	9.700516	0.011541	0.160676	-0.061922	-0.005069	0.002124	0.024252
01888	9733796	-1.960564	0.737010	9.592616	0.014353	0.172468	-0.058851	-0.004896	0.001842	0.023983
01889	9733821	-2.023697	0.881387	9.605010	0.020982	0.181250	-0.058998	-0.005054	0.002203	0.024014
01890	9733846	-1.986459	0.840260	9.561064	0.012687	0.188325	-0.050789	-0.004960	0.002101	0.023904
01891	9733871	-2.019552	0.764729	9.532923	0.001299	0.192890	-0.043429	-0.005043	0.001912	0.023834
01892	9733896	-1.926201	0.884984	9.727252	-0.011769	0.205790	-0.033033	-0.004809	0.002213	0.024319
01893	9733921	-1.865880	0.626771	9.662690	-0.023878	0.204180	-0.038283	-0.004658	0.001568	0.024158
01894	9733946	-2.030731	0.893585	9.676774	0.000526	0.205982	-0.043389	-0.005070	0.002234	0.024193
01895	9733971	-2.433208	0.876535	9.851742	0.060494	0.229113	-0.060470	-0.006076	0.002190	0.024631
01896	9733996	-1.986034	0.469322	10.302230	0.197320	0.211960	-0.084393	-0.004958	0.001167	0.025757
01897	9734021	-1.488257	0.239906	9.819649	0.331517	0.194737	-0.100040	-0.003715	0.000590	0.024550
01898	9734046	-1.452179	0.502802	9.322583	0.354569	0.213370	-0.105153	-0.003624	0.001247	0.023308
01899	9734071	-1.872332	0.984659	9.129991	0.271453	0.231482	-0.077558	-0.004674	0.002454	0.022827
01900	9734096	-1.959715	0.805226	9.308659	0.130880	0.255921	-0.041498	-0.004892	0.002010	0.023274
01901	9734121	-2.322395	1.093470	9.120784	0.024945	0.272489	0.004382	-0.005798	0.002733	0.022804
01902	9734146	-2.025926	0.797055	9.345708	-0.037371	0.300826	0.039728	-0.005056	0.001993	0.023366
01903	9734171	-1.730691	0.657300	9.583162	-0.049089	0.317448	0.045173	-0.004317	0.001644	0.023960
01904	9734196	-1.471177	0.480599	9.770005	-0.019035	0.328033	0.045860	-0.003668	0.001202	0.024426
01905	9734221	-1.852652	0.598578	9.861865	0.032376	0.328855	0.030385	-0.004622	0.001495	0.024657
01906	9734246	-1.979604	0.572214	9.951986	0.090627	0.340024	0.027385	-0.004938	0.001428	0.024882
01907	9734271	-1.989573	0.593522	10.135235	0.157018	0.355874	0.028026	-0.004963	0.001479	0.025341
01908	9734296	-1.634843	0.130129	10.592267	0.365102	0.341012	-0.023621	-0.004076	0.000313	0.026483
01909	9734321	-1.565057	0.516396	9.841760	0.558899	0.346942	-0.054248	-0.003902	0.001274	0.024607
01910	9734346	-1.656899	0.645348	9.797105	0.625740	0.393720	-0.078715	-0.004130	0.001595	0.024496
01911	9734371	-1.714477	1.032142	9.305599	0.538956	0.407672	-0.059272	-0.004274	0.002565	0.023268
01912	9734396	-2.052452	1.620271	8.231647	0.272965	0.479555	0.004686	-0.005119	0.004044	0.020584
01913	9734421	-2.202885	1.820352	8.026329	-0.146671	0.560543	0.106771	-0.005494	0.004554	0.020069
01914	9734446	-1.495488	0.872667	9.330320	-0.401928	0.562410	0.126919	-0.003723	0.002193	0.023327
01915	9734471	-0.902564	0.723546	9.918524	-0.309163	0.529799	0.058644	-0.002240	0.001818	0.024797
01916	9734496	-0.807357	1.469157	9.634228	-0.282562	0.563817	0.039183	-0.002002	0.003681	0.024086
01917	9734521	-1.090495	1.269379	9.322865	-0.582886	0.679232	0.083722	-0.002707	0.003190	0.023307
01918	9734546	-1.563698	0.334770	9.814817	-0.754211	0.758909	0.099693	-0.003886	0.000860	0.024540
01919	9734571	-1.797942	0.853067	10.197138	-0.675170	0.752445	0.103377	-0.004471	0.002154	0.025495
01920	9734596	-1.961214	0.041787	9.328436	-0.848227	0.764953	0.164205	-0.004881	0.000128	0.023326
01921	9734621	-4.045325	-1.205008	8.056733	-0.241080	0.746624	0.063288	-0.010094	-0.003007	0.020152
01922	9734646	-4.728571	1.583513	8.774387	0.287846	0.646757	0.114600	-0.011804	0.003949	0.021947
01923	9734671	-2.856812	1.122241	10.452431	-0.112884	0.634757	0.191216	-0.007122	0.002808	0.026136
01924	9734696	-1.092201	1.171546	10.435128	-0.153701	0.652763	0.132464	-0.002710	0.002933	0.026089
01925	9734721	-1.617190	1.106962	8.886196	0.139357	0.773508	0.069964	-0.004022	0.002763	0.022220
01926	9734746	-2.221425	0.703249	9.356026	0.048727	0.878631	0.094783	-0.005528	0.001756	0.023396
01927	9734771	-2.326885	0.165624	9.889302	-0.004271	0.848118	0.137764	-0.005791	0.000413	0.024729
01928	9734796	-1.891291	0.441682	9.186500	0.119510	0.812091	0.138363	-0.004705	0.001100	0.022971
01929	9734821	-1.522948	0.822217	9.154888	0.052437	0.860603	0.158355	-0.003783	0.002053	0.022891
01930	9734846	-1.679195	0.931911	8.924061	-0.060102	0.908959	0.154407	-0.004173	0.002331	0.022315
01931	9734871	-1.872183	0.971343	9.102046	-0.031866	0.906287	0.118175	-0.004655	0.002429	0.022760
01932	9734896	-1.986679	1.012056	9.193759	-0.033781	0.894425	0.086781	-0.004941	0.002531	0.022990
01933	9734921	-2.038791	0.834843	9.567660	-0.035511	0.922828	0.072016	-0.005070	0.002088	0.023925
01934	9734946	-2.221137	0.777782	9.742661	-0.007240	0.952003	0.064378	-0.005524	0.001944	0.024363
01935	9734971	-2.072028	0.624818	9.436785	-0.022615	1.002936	0.080536	-0.005151	0.001562	0.023598
01936	9734996	-2.055537	0.602644	9.508393	-0.039355	1.046570	0.105767	-0.005108	0.001507	0.023778
01937	9735021	-1.985275	0.527316	9.423185	-0.031914	1.071814	0.123198	-0.004932	0.001318	0.023565
01938	9735046	-1.938103	0.688315	9.403871	-0.016324	1.105994	0.109464	-0.004813	0.001721	0.023516
01939	9735071	-2.242006	0.937303	9.336866	-0.004199	1.152343	0.095333	-0.005572	0.002343	0.023350
01940	9735096	-2.401308	0.761591	9.698643	-0.024909	1.209465	0.112662	-0.005967	0.001904	0.024256
01941	9735121	-2.403598	0.550663	9.826838	0.053594	1.227177	0.102447	-0.005971	0.001374	0.024576
01942	9735146	-1.802824	0.855273	8.826506	-0.043583	1.251509	0.113374	-0.004473	0.002139	0.022073
01943	9735171	-1.672846	0.622496	8.986946	-0.000769	1.271976	0.074296	-0.004147	0.001556	0.022474
01944	9735196	-2.112761	1.143835	9.607159	-0.010060	1.335301	0.051905	-0.005242	0.002860	0.024027
01945	9735221	-2.369673	0.431294	10.227504	0.013691	1.398157	0.038055	-0.005880	0.001078	0.025579
01946	9735246	-2.729179	1.271086	8.981701	0.120571	1.432125	0.001071	-0.006783	0.003174	0.022467
01947	9735271	-2.193151	0.573831	9.612028	-0.069909	1.516734	0.062905	-0.005437	0.001436	0.024040
01948	9735296	-2.955621	1.037519	8.623501	-0.032246	1.492391	0.069884	-0.007349	0.002594	0.021572
01949	9735321	-3.747471	0.491056	10.110522	-0.050497	1.452840	0.122142	-0.009323	0.001228	0.025293
01952	9735346	-3.859619	1.330071	10.517763	-0.123470	1.392486	0.197426	-0.009604	0.003327	0.026311
01953	9735371	-3.323037	0.185356	8.358366	-0.043193	1.402641	0.225009	-0.008271	0.000462	0.020910
01954	9735396	-2.466412	1.375699	8.742123	-0.013839	1.277115	0.117199	-0.006132	0.003439	0.021865
01955	9735421	-2.705975	1.654059	9.261400	0.098467	1.178842	-0.005813	-0.006731	0.004132	0.023164
01956	9735446	-0.280765	1.550778	9.249372	0.138357	1.283269	-0.176102	-0.000664	0.003873	0.023125
01957	9735471	-1.199427	1.451382	9.039526	0.155249	1.465101	-0.356589	-0.002956	0.003625	0.022605
01958	9735496	-2.584254	0.798914	8.839047	0.183274	1.523971	-0.393510	-0.006418	0.001995	0.022110
01959	9735521	-1.526621	-0.220745	10.139535	0.137849	1.730478	-0.302947	-0.003762	-0.000555	0.025357
01960	9735546	-2.932717	0.638563	9.948148	0.168522	1.845691	-0.313217	-0.007274	0.001594	0.024888
01961	9735571	-1.123546	0.814388	7.559565	0.160273	1.831940	-0.315431	-0.002765	0.002033	0.018906
01962	9735596	1.173424	-0.065011	8.803551	0.197627	2.050238	-0.301323	0.002990	-0.000169	0.022001
01963	9735621	-1.141021	0.038296	10.044891	0.180686	2.241235	-0.295832	-0.002782	0.000091	0.025120
01964	9735646	-3.395624	0.920996	9.772245	0.217761	2.300975	-0.302381	-0.008418	0.002299	0.024456
01965	9735671	-4.874042	1.340245	10.214044	0.192756	2.308189	-0.265621	-0.012110	0.003348	0.025571
01966	9735696	-7.619873	1.033450	11.271237	0.143716	2.224617	-0.140551	-0.018971	0.002582	0.028231
01967	9735721	3.167131	0.379253	6.159143	0.202619	2.202014	-0.099836	0.007960	0.000943	0.015376
01968	9735746	5.822189	1.461144	8.671450	0.202673	2.656049	-0.293179	0.014629	0.003642	0.021631
01969	9735771	-1.034214	0.531051	12.107312	0.277278	2.920830	-0.392471	-0.002474	0.001318	0.030278
01970	9735796	-1.897931	1.171691	10.693341	0.288617	3.052400	-0.421881	-0.004641	0.002922	0.026752
01971	9735821	-1.324145	1.943068	9.468798	0.305947	3.198521	-0.463037	-0.003213	0.004850	0.023687
01972	9735846	-1.517130	2.119102	10.621097	0.310663	3.423061	-0.522834	-0.003676	0.005290	0.026571
01973	9735871	-1.995152	1.839577	10.745774	0.337547	3.550587	-0.586167	-0.004865	0.004591	0.026888
01974	9735896	-1.430252	2.056292	11.896309	0.362466	3.675063	-0.634075	-0.003435	0.005130	0.029759
01975	9735921	-1.440506	3.076446	13.332024	0.292371	3.825341	-0.737190	-0.003435	0.007682	0.033350
01976	9735946	0.521474	2.445484	11.330306	0.316265	3.914556	-0.815390	0.001448	0.006101	0.028321
01977	9735971	-0.040773	1.387000	12.958753	0.290079	4.031971	-0.819611	0.000065	0.003456	0.032398
01978	9735996	-1.488117	1.878274	13.976591	0.151431	4.155120	-0.815147	-0.003534	0.004693	0.034961
01979	9736021	-1.433819	2.070131	11.839424	0.247025	4.252806	-0.868662	-0.003422	0.005170	0.029619
01980	9736046	-3.110643	3.189022	13.551011	0.128349	4.353269	-0.896156	-0.007583	0.007976	0.033920
01981	9736071	-3.204244	3.551531	13.800126	-0.042419	4.438855	-0.926492	-0.007809	0.008890	0.034544
01982	9736096	-2.989397	2.131352	11.892417	-0.135451	4.543992	-0.981041	-0.007298	0.005342	0.029772
01983	9736121	-5.202275	1.331170	12.007457	-0.146564	4.639291	-1.027803	-0.012827	0.003350	0.030093
01984	9736146	-4.705084	1.675750	11.499393	-0.149576	4.711338	-1.070223	-0.011588	0.004210	0.028816
01985	9736171	-4.427080	2.881237	11.408554	-0.227499	4.795862	-1.097145	-0.010887	0.007226	0.028585
01986	9736196	-4.881684	2.742233	12.132193	-0.288037	4.873286	-1.163645	-0.012009	0.006884	0.030402
01987	9736221	-3.858735	2.727515	11.107065	-0.409832	4.979876	-1.220306	-0.009463	0.006848	0.027823
01988	9736246	-4.492408	1.957857	11.848043	-0.368751	5.071386	-1.306358	-0.011035	0.004926	0.029688
01989	9736271	-4.279793	1.867434	11.748336	-0.435697	5.176569	-1.374496	-0.010501	0.004703	0.029437
01990	9736296	-3.547033	1.896610	11.712511	-0.427327	5.284750	-1.436981	-0.008665	0.004773	0.029336
01991	9736321	-3.754506	2.637910	11.737090	-0.488697	5.388228	-1.471914	-0.009176	0.006630	0.029401
01992	9736346	-4.500472	2.904751	12.387090	-0.532448	5.505104	-1.531955	-0.011024	0.007304	0.031039
01993	9736371	-3.692583	3.238704	11.938754	-0.602711	5.620274	-1.594528	-0.009005	0.008137	0.029905
01994	9736396	-2.999090	3.256106	12.503343	-0.652960	5.736309	-1.641357	-0.007257	0.008181	0.031304
01995	9736421	-3.386056	3.610878	12.942469	-0.710885	5.833508	-1.679476	-0.008210	0.009073	0.032409
01996	9736446	-3.917399	4.362140	14.262876	-0.789215	5.923469	-1.729418	-0.009506	0.010961	0.035717
01997	9736471	-3.668623	5.113431	14.619175	-0.937153	6.014675	-1.735191	-0.008869	0.012846	0.036600
01998	9736496	-2.990732	5.101343	13.710741	-1.111347	6.145736	-1.767407	-0.007185	0.012817	0.034315
01999	9736521	-1.716375	4.673940	12.501111	-1.217749	6.333157	-1.887439	-0.004016	0.011742	0.031267
02000	9736546	-0.752856	3.685448	11.840683	-1.299167	6.511784	-1.980754	-0.001618	0.009266	0.029601
02001	9736571	-0.080624	3.063305	11.605963	-1.339301	6.636619	-2.053639	0.000059	0.007707	0.029002
02002	9736596	0.409702	2.863905	11.339907	-1.357238	6.730597	-2.089476	0.001281	0.007205	0.028328
02003	9736621	0.439944	2.944043	11.659860	-1.361066	6.833213	-2.113833	0.001368	0.007406	0.029126
02004	9736646	-0.446973	3.726577	12.123580	-1.351903	6.933098	-2.142837	-0.000830	0.009370	0.030301
02005	9736671	0.354466	4.413948	13.630886	-1.380682	7.175214	-2.129444	0.001221	0.011091	0.034048
02006	9736696	1.739543	4.882670	14.032027	-1.434917	7.392449	-2.104046	0.004705	0.012257	0.035016
02007	9736721	3.716359	6.455929	15.117867	-1.447014	7.390988	-2.031195	0.009680	0.016184	0.037677
02008	9736746	5.096331	7.903578	13.698864	-1.402765	7.041697	-1.746045	0.013085	0.019791	0.034098
02009	9736771	5.909568	9.940032	12.896387	-1.311456	6.995741	-1.386131	0.015098	0.024877	0.032069
02010	9736796	7.173329	12.282522	17.574153	-1.264831	6.981662	-0.999612	0.018354	0.030753	0.043728
02011	9736821	4.668616	13.401586	17.038628	-1.363394	6.724560	-0.664369	0.012057	0.033566	0.042439
02012	9736846	1.877460	15.331174	17.894732	-1.228576	6.417816	-0.388014	0.005071	0.038394	0.044638
02013	9736871	-0.226521	16.184274	22.744718	-1.154567	5.611126	0.126583	-0.000174	0.040543	0.056805
02014	9736896	-8.001560	10.847746	20.995029	-0.770298	3.975917	0.632864	-0.019764	0.027154	0.052560
02015	9736921	-16.332121	10.856540	33.949573	0.378409	3.591048	0.711253	-0.040473	0.027065	0.085069
02016	9736946	-24.625213	12.700387	41.703754	0.172857	2.860130	0.908660	-0.061226	0.031659	0.104486
02017	9736971	-21.302395	15.619995	42.125179	-0.519104	2.404544	1.016747	-0.052989	0.039051	0.105447
02018	9736996	-16.524167	16.726163	44.752463	-0.671976	1.961970	0.845377	-0.041080	0.041866	0.111947
02019	9737021	-11.366951	17.090340	42.820719	-1.136370	1.475760	0.503946	-0.028247	0.042860	0.107043
02020	9737046	-5.954532	15.387344	37.399459	-1.345686	1.032876	0.106262	-0.014771	0.038624	0.093453
02021	9737071	-0.623956	13.832904	31.618638	-1.288269	0.608118	-0.168447	-0.001493	0.034710	0.078992
02022	9737096	4.127179	11.358614	26.239685	-1.231012	0.278342	0.025423	0.010340	0.028498	0.065552
02023	9737121	8.018028	9.811152	23.583877	-1.077189	0.068104	0.229137	0.020043	0.024613	0.058925
02024	9737146	9.831509	9.877540	21.247362	-0.840105	-0.136156	0.326732	0.024560	0.024760	0.053097
02025	9737171	9.920486	10.185995	19.915267	-0.641479	-0.318422	0.426209	0.024768	0.025518	0.049778
02026	9737196	8.891330	10.076399	19.020686	-0.566384	-0.501995	0.522360	0.022182	0.025239	0.047548
02027	9737221	7.764054	9.553930	17.963968	-0.543751	-0.663425	0.590114	0.019355	0.023930	0.044910
02028	9737246	7.225973	8.854009	16.912198	-0.561653	-0.824315	0.641278	0.018004	0.022179	0.042284
02029	9737271	7.144372	8.188343	15.522113	-0.573951	-0.973841	0.679380	0.017796	0.020514	0.038812
02030	9737296	7.324721	7.704304	14.072994	-0.593134	-1.099641	0.722008	0.018246	0.019303	0.035193
02031	9737321	7.529728	7.335370	12.723913	-0.622954	-1.185884	0.747955	0.018760	0.018381	0.031823
02032	9737346	7.771757	7.016757	11.522389	-0.651490	-1.248867	0.774542	0.019367	0.017584	0.028822
02033	9737371	7.961876	6.653071	10.631403	-0.671636	-1.293338	0.790799	0.019845	0.016675	0.026597
02034	9737396	8.068586	6.283837	10.108252	-0.682794	-1.334728	0.807629	0.020113	0.015751	0.025291
02035	9737421	7.998285	5.993091	9.914600	-0.671165	-1.372194	0.819463	0.019938	0.015024	0.024808
02036	9737446	7.738467	5.717429	10.108690	-0.661675	-1.402962	0.836047	0.019287	0.014335	0.025294
02037	9737471	7.274359	5.526036	10.576530	-0.654470	-1.445205	0.850578	0.018123	0.013856	0.026463
02038	9737496	6.629455	5.377856	11.247690	-0.650086	-1.488918	0.865643	0.016507	0.013485	0.028139
02039	9737521	5.919679	5.214334	11.995752	-0.635639	-1.553521	0.880296	0.014727	0.013076	0.030008
02040	9737546	5.227883	5.046689	12.739871	-0.621376	-1.628651	0.890444	0.012991	0.012656	0.031866
02041	9737571	4.635402	4.930168	13.415161	-0.600115	-1.728783	0.899711	0.011502	0.012364	0.033554
02042	9737596	4.076268	4.808419	14.002780	-0.574369	-1.834724	0.907427	0.010097	0.012058	0.035022
02043	9737621	3.599886	4.660968	14.480226	-0.551038	-1.947072	0.907039	0.008898	0.011687	0.036214
02044	9737646	3.202209	4.550837	14.903298	-0.522993	-2.056590	0.911093	0.007897	0.011410	0.037271
02045	9737671	2.808744	4.456056	15.262685	-0.486732	-2.173588	0.926356	0.006905	0.011171	0.038169
02046	9737696	2.407394	4.334152	15.515715	-0.456577	-2.292951	0.933807	0.005895	0.010864	0.038800
02047	9737721	2.022790	4.200336	15.665115	-0.426053	-2.417138	0.932418	0.004926	0.010527	0.039172
02048	9737746	1.642402	4.058511	15.732224	-0.395650	-2.545018	0.933180	0.003969	0.010170	0.039338
02049	9737771	1.349236	3.941934	15.661268	-0.359488	-2.664851	0.935905	0.003231	0.009876	0.039160
02050	9737796	1.049249	3.816062	15.507988	-0.333508	-2.787549	0.931095	0.002477	0.009559	0.038775
02051	9737821	0.810301	3.674235	15.212541	-0.309344	-2.900868	0.938121	0.001877	0.009203	0.038035
02054	9737846	0.596203	3.558788	14.852096	-0.281047	-3.006986	0.926256	0.001341	0.008912	0.037132
02055	9737871	0.419550	3.417483	14.413301	-0.256004	-3.115870	0.926026	0.000899	0.008556	0.036034
02056	9737896	0.317355	3.287476	13.894869	-0.235789	-3.203361	0.925742	0.000645	0.008230	0.034738
02057	9737921	0.238699	3.145286	13.320609	-0.213800	-3.287802	0.915658	0.000451	0.007873	0.033301
02058	9737946	0.140715	2.981023	12.752875	-0.196227	-3.352875	0.907941	0.000210	0.007461	0.031881
02059	9737971	0.071609	2.838839	12.191910	-0.164404	-3.411667	0.896528	0.000041	0.007103	0.030479
02060	9737996	-0.029143	2.707571	11.645521	-0.137628	-3.463208	0.892323	-0.000206	0.006774	0.029112
02061	9738021	-0.109326	2.628348	11.143243	-0.100175	-3.503029	0.887485	-0.000403	0.006574	0.027856
02062	9738046	-0.233683	2.542080	10.687257	-0.064498	-3.533586	0.887778	-0.000709	0.006357	0.026715
02063	9738071	-0.348494	2.465293	10.276550	-0.031613	-3.552441	0.884554	-0.000992	0.006163	0.025687
02064	9738096	-0.427675	2.403311	9.934947	0.013579	-3.567594	0.877071	-0.001187	0.006007	0.024832
02065	9738121	-0.516639	2.350723	9.671737	0.050138	-3.572459	0.881441	-0.001406	0.005874	0.024174
02066	9738146	-0.614132	2.297787	9.498908	0.093794	-3.571287	0.894459	-0.001648	0.005740	0.023741
02067	9738171	-0.693663	2.291443	9.362006	0.138595	-3.570823	0.891689	-0.001845	0.005723	0.023398
02068	9738196	-0.820299	2.316363	9.319471	0.185462	-3.562581	0.897329	-0.002161	0.005783	0.023291
02069	9738221	-0.968903	2.378281	9.315626	0.229427	-3.558042	0.908743	-0.002533	0.005936	0.023280
02070	9738246	-1.094419	2.431588	9.412694	0.275561	-3.547574	0.928910	-0.002847	0.006068	0.023521
02071	9738271	-1.191169	2.481826	9.573533	0.315781	-3.542850	0.939076	-0.003091	0.006192	0.023923
02072	9738296	-1.326515	2.569135	9.767623	0.359618	-3.533163	0.958519	-0.003432	0.006408	0.024407
02073	9738321	-1.470111	2.665886	10.002908	0.404276	-3.524888	0.986368	-0.003794	0.006647	0.024994
02074	9738346	-1.612431	2.790127	10.248986	0.437643	-3.519688	1.009621	-0.004153	0.006956	0.025608
02075	9738371	-1.758842	2.967753	10.546977	0.475350	-3.520932	1.035891	-0.004523	0.007398	0.026352
02076	9738396	-1.938549	3.083304	10.897828	0.499441	-3.521645	1.074214	-0.004977	0.007685	0.027228
02077	9738421	-2.072751	3.236016	11.254362	0.525044	-3.521315	1.105232	-0.005317	0.008064	0.028118
02078	9738446	-2.216505	3.359878	11.577208	0.543903	-3.526112	1.144798	-0.005681	0.008372	0.028924
02079	9738471	-2.484304	3.457695	11.894898	0.555048	-3.533248	1.190782	-0.006355	0.008614	0.029715
02080	9738496	-2.650236	3.580134	12.257862	0.563157	-3.550135	1.231744	-0.006775	0.008918	0.030621
02081	9738521	-2.839585	3.647499	12.631140	0.561977	-3.570747	1.272692	-0.007254	0.009085	0.031552
02082	9738546	-3.067332	3.694626	12.896752	0.562055	-3.592745	1.323263	-0.007828	0.009201	0.032213
02083	9738571	-3.259364	3.682612	13.172880	0.546775	-3.608390	1.368741	-0.008313	0.009170	0.032901
02084	9738596	-3.393573	3.654250	13.423755	0.536484	-3.636542	1.414542	-0.008652	0.009098	0.033526
02085	9738621	-3.523478	3.590271	13.613328	0.517709	-3.662010	1.459552	-0.008981	0.008937	0.033998
02086	9738646	-3.718133	3.483902	13.752364	0.501179	-3.693186	1.508925	-0.009470	0.008670	0.034343
02087	9738671	-3.879562	3.380446	13.868767	0.487973	-3.725183	1.551210	-0.009877	0.008411	0.034631
02088	9738696	-3.998408	3.252245	13.949353	0.474391	-3.758586	1.590278	-0.010176	0.008090	0.034831
02089	9738721	-4.122701	3.074619	14.031020	0.451719	-3.785931	1.634128	-0.010488	0.007645	0.035033
02090	9738746	-4.216658	2.898581	14.047644	0.443304	-3.811149	1.675154	-0.010724	0.007205	0.035072
02091	9738771	-4.296587	2.689750	14.005751	0.423153	-3.839621	1.712461	-0.010924	0.006683	0.034966
02092	9738796	-4.361465	2.478345	13.928023	0.404519	-3.863356	1.745000	-0.011085	0.006154	0.034770
02093	9738821	-4.383679	2.236581	13.866106	0.392643	-3.886118	1.783137	-0.011140	0.005550	0.034614
02094	9738846	-4.400477	1.937137	13.800098	0.371199	-3.900095	1.811008	-0.011180	0.004802	0.034448
02095	9738871	-4.388544	1.634650	13.789774	0.357902	-3.920270	1.829259	-0.011149	0.004046	0.034422
02096	9738896	-4.413912	1.275765	13.801788	0.347571	-3.932448	1.854357	-0.011212	0.003149	0.034451
02097	9738921	-4.486112	1.026604	13.879252	0.334983	-3.943912	1.867573	-0.011392	0.002526	0.034643
02098	9738946	-4.938290	1.047744	13.618339	0.307226	-4.039796	1.866824	-0.012523	0.002577	0.033984
02099	9738971	-4.683241	0.473767	12.989906	0.429126	-4.058612	1.885372	-0.011875	0.001139	0.032415
02100	9738996	-3.812926	0.462584	15.837852	0.264318	-3.918846	1.896774	-0.009729	0.001120	0.039548
02101	9739021	-5.044629	0.337804	13.821210	0.185479	-3.899922	1.893381	-0.012782	0.000806	0.034491
02102	9739046	-5.352181	0.106719	14.319744	0.262710	-3.940218	1.846264	-0.013557	0.000224	0.035733
02103	9739071	-5.215940	0.067295	14.156131	0.220883	-4.028109	1.848379	-0.013218	0.000128	0.035324
02104	9739096	-5.156742	-0.262376	14.092747	0.216800	-4.048540	1.854383	-0.013068	-0.000696	0.035166
02105	9739121	-4.977353	-0.232918	14.621280	0.179776	-4.042909	1.820709	-0.012627	-0.000619	0.036490
02106	9739146	-5.099904	-0.292118	14.608808	0.134658	-4.035103	1.812184	-0.012932	-0.000766	0.036457
02107	9739171	-5.331175	-0.451422	14.608334	0.110244	-4.045455	1.789209	-0.013510	-0.001164	0.036453
02108	9739196	-5.471768	-0.543355	14.556149	0.097624	-4.061900	1.760069	-0.013861	-0.001393	0.036320
02109	9739221	-5.470545	-0.590157	14.585359	0.075953	-4.078439	1.735763	-0.013859	-0.001509	0.036393
02110	9739246	-5.405734	-0.632518	14.517407	0.051110	-4.080933	1.705461	-0.013696	-0.001613	0.036224
02111	9739271	-5.407150	-0.680617	14.494704	0.033531	-4.086164	1.677864	-0.013699	-0.001732	0.036167
02112	9739296	-5.469181	-0.724492	14.473273	0.022251	-4.089481	1.646320	-0.013854	-0.001841	0.036113
02113	9739321	-5.478859	-0.715040	14.525030	0.010295	-4.090881	1.605282	-0.013879	-0.001816	0.036242
02114	9739346	-5.571260	-0.716496	14.544848	0.000779	-4.099326	1.574384	-0.014111	-0.001819	0.036290
02115	9739371	-5.655311	-0.723395	14.572749	0.004368	-4.088682	1.537405	-0.014321	-0.001836	0.036359
02116	9739396	-5.732367	-0.685013	14.598033	0.001512	-4.086388	1.508006	-0.014514	-0.001740	0.036421
02117	9739421	-5.812146	-0.671227	14.595388	-0.002080	-4.084186	1.464604	-0.014713	-0.001705	0.036414
02118	9739446	-5.892022	-0.673835	14.562114	-0.000493	-4.075489	1.430152	-0.014912	-0.001711	0.036330
02119	9739471	-5.948131	-0.584304	14.518527	0.001104	-4.069309	1.391306	-0.015052	-0.001487	0.036220
02120	9739496	-5.970101	-0.530533	14.482915	0.001788	-4.064188	1.353987	-0.015107	-0.001352	0.036131
02121	9739521	-6.065020	-0.471258	14.452410	0.003535	-4.048013	1.317747	-0.015343	-0.001203	0.036054
02122	9739546	-6.085436	-0.403878	14.440710	0.004414	-4.030756	1.280533	-0.015394	-0.001034	0.036025
02123	9739571	-6.194176	-0.416160	14.428691	0.008482	-4.018896	1.235465	-0.015665	-0.001065	0.035993
02124	9739596	-6.201063	-0.361143	14.434178	0.009264	-4.004340	1.202090	-0.015682	-0.000927	0.036007
02125	9739621	-6.264373	-0.300673	14.432970	0.014739	-3.981692	1.161093	-0.015839	-0.000775	0.036004
02126	9739646	-6.340187	-0.226682	14.506215	0.015073	-3.964733	1.121463	-0.016029	-0.000590	0.036186
02127	9739671	-6.428521	-0.163866	14.607258	0.004157	-3.942104	1.078028	-0.016250	-0.000432	0.036438
02128	9739696	-6.545766	-0.136794	14.745438	0.007038	-3.917206	1.037088	-0.016544	-0.000364	0.036783
02129	9739721	-6.634137	-0.058974	14.886467	0.006866	-3.892337	0.989987	-0.016766	-0.000168	0.037135
02130	9739746	-6.751640	0.022902	15.061879	-0.000584	-3.869949	0.939720	-0.017061	0.000037	0.037572
02131	9739771	-6.910757	0.071220	15.374080	-0.006513	-3.853380	0.895256	-0.017462	0.000159	0.038351
02132	9739796	-7.081079	0.115086	15.784467	-0.007835	-3.829211	0.852614	-0.017892	0.000269	0.039376
02133	9739821	-7.374125	0.173859	16.281138	-0.004545	-3.822191	0.806023	-0.018630	0.000416	0.040614
02134	9739846	-7.653551	0.154086	16.767041	0.002803	-3.814844	0.756428	-0.019334	0.000367	0.041826
02135	9739871	-8.067620	0.254065	17.278489	0.015497	-3.815386	0.713858	-0.020375	0.000616	0.043099
02136	9739896	-8.502438	0.312790	17.757957	0.031772	-3.822291	0.678166	-0.021469	0.000762	0.044293
02137	9739921	-8.830954	0.402087	18.184519	0.057920	-3.843889	0.634823	-0.022296	0.000984	0.045355
02138	9739946	-9.205970	0.508072	18.524559	0.083144	-3.871984	0.603054	-0.023240	0.001248	0.046199
02139	9739971	-9.532706	0.574711	18.753180	0.118310	-3.898467	0.560162	-0.024061	0.001413	0.046766
02140	9739996	-9.775008	0.739544	18.826416	0.156226	-3.915080	0.524554	-0.024669	0.001824	0.046946
02141	9740021	-10.214938	1.002061	18.847034	0.175103	-3.949882	0.487175	-0.025771	0.002479	0.046991
02142	9740046	-10.691545	1.050435	18.471200	0.228306	-3.999732	0.459412	-0.026961	0.002597	0.046044
02143	9740071	-10.922615	1.109785	18.423612	0.273411	-4.044881	0.446985	-0.027540	0.002743	0.045921
02144	9740096	-11.012218	1.270963	17.981785	0.311591	-4.083530	0.439032	-0.027761	0.003145	0.044814
02145	9740121	-11.083545	1.498209	17.525555	0.352462	-4.110832	0.417656	-0.027935	0.003712	0.043672
02146	9740146	-11.256599	1.635455	16.877764	0.382941	-4.128372	0.412749	-0.028361	0.004054	0.042050
02147	9740171	-11.322384	1.778011	16.273925	0.422834	-4.143710	0.401095	-0.028518	0.004409	0.040540
02148	9740196	-11.378543	1.926117	15.668692	0.455848	-4.158243	0.398966	-0.028652	0.004779	0.039026
02149	9740221	-11.492453	2.075582	15.021012	0.491674	-4.150306	0.397794	-0.028928	0.005152	0.037406
02150	9740246	-11.560857	2.212696	14.395786	0.520338	-4.132430	0.398392	-0.029090	0.005494	0.035843
02151	9740271	-11.605773	2.365261	13.705752	0.546966	-4.112565	0.407257	-0.029193	0.005875	0.034119
02152	9740296	-11.718066	2.506752	13.005984	0.567364	-4.084138	0.413169	-0.029464	0.006229	0.032369
02153	9740321	-11.781346	2.610819	12.402177	0.588661	-4.048552	0.425223	-0.029613	0.006489	0.030861
02156	9740346	-11.855356	2.786129	11.846094	0.603917	-4.004560	0.448280	-0.029790	0.006926	0.029472
02157	9740371	-11.899525	2.897768	11.435769	0.593616	-3.967481	0.461653	-0.029894	0.007206	0.028447
02158	9740396	-12.059911	3.073165	10.764546	0.607803	-3.903663	0.468800	-0.030285	0.007645	0.026770
02159	9740421	-12.212013	3.148860	10.465694	0.601327	-3.848005	0.489048	-0.030660	0.007834	0.026023
02160	9740446	-12.519797	3.306989	10.108766	0.599846	-3.779715	0.513119	-0.031424	0.008228	0.025130
02161	9740471	-12.790104	3.431882	9.806172	0.589602	-3.720276	0.533093	-0.032095	0.008540	0.024373
02162	9740496	-13.093491	3.553925	9.551347	0.582012	-3.653462	0.565178	-0.032849	0.008844	0.023735
02163	9740521	-13.413713	3.587977	9.296272	0.581480	-3.589534	0.593651	-0.033645	0.008928	0.023096
02164	9740546	-13.685651	3.630216	9.051865	0.571502	-3.520382	0.618542	-0.034320	0.009033	0.022485
02165	9740571	-14.025123	3.669635	8.823299	0.561698	-3.460066	0.653795	-0.035165	0.009130	0.021913
02166	9740596	-14.330092	3.608861	8.546799	0.549619	-3.393693	0.681841	-0.035923	0.008977	0.021221
02167	9740621	-14.603649	3.491624	8.283173	0.545667	-3.324182	0.709889	-0.036602	0.008683	0.020562
02168	9740646	-14.900353	3.297817	7.925093	0.541276	-3.259651	0.739906	-0.037339	0.008197	0.019666
02169	9740671	-15.183512	3.047512	7.596018	0.541242	-3.197334	0.772019	-0.038042	0.007569	0.018843
02170	9740696	-15.517380	2.731639	7.148560	0.548276	-3.121328	0.794402	-0.038870	0.006778	0.017724
02171	9740721	-15.769883	2.409166	6.625374	0.548174	-3.058765	0.813892	-0.039494	0.005971	0.016417
02172	9740746	-16.046796	2.131168	5.977480	0.550880	-2.983743	0.838780	-0.040178	0.005276	0.014798
02173	9740771	-16.158826	1.660206	5.477824	0.557984	-2.922971	0.853804	-0.040451	0.004098	0.013550
02174	9740796	-16.263018	1.292609	4.833719	0.589383	-2.831529	0.859601	-0.040703	0.003179	0.011943
02175	9740821	-16.480737	0.940025	4.306148	0.623070	-2.732922	0.862000	-0.041241	0.002297	0.010626
02176	9740846	-16.608672	0.724764	3.653786	0.623542	-2.607168	0.864910	-0.041553	0.001760	0.009000
02177	9740871	-16.954484	0.442937	2.722513	0.609772	-2.546028	0.844254	-0.042409	0.001057	0.006672
02178	9740896	-17.081072	0.105888	2.307042	0.659400	-2.413307	0.843075	-0.042720	0.000215	0.005639
02179	9740921	-17.330882	-0.066367	1.789509	0.654485	-2.301879	0.855093	-0.043340	-0.000216	0.004349
02180	9740946	-17.651754	-0.407430	1.413759	0.662015	-2.171578	0.883439	-0.044138	-0.001070	0.003414
02181	9740971	-17.844991	-0.522738	1.025532	0.655882	-2.063738	0.899192	-0.044617	-0.001359	0.002448
02182	9740996	-17.928339	-0.534025	0.698737	0.634668	-1.940897	0.911276	-0.044823	-0.001387	0.001637
02183	9741021	-18.051551	-0.480843	0.460998	0.623656	-1.816258	0.904259	-0.045130	-0.001254	0.001049
02184	9741046	-18.283976	-0.484479	0.329342	0.582512	-1.686706	0.885091	-0.045710	-0.001262	0.000726
02185	9741071	-18.635007	-0.536425	0.269171	0.553267	-1.546714	0.865748	-0.046587	-0.001392	0.000582
02186	9741096	-18.964449	-0.541080	0.395165	0.496298	-1.417353	0.845357	-0.047411	-0.001403	0.000903
02187	9741121	-19.460047	-0.469538	0.420299	0.434889	-1.297800	0.826282	-0.048650	-0.001225	0.000971
02188	9741146	-19.877250	-0.452938	0.445455	0.362845	-1.182521	0.824318	-0.049693	-0.001184	0.001040
02189	9741171	-20.188305	-0.434872	0.421462	0.284507	-1.069688	0.828939	-0.050471	-0.001140	0.000986
02190	9741196	-20.449919	-0.392282	0.428141	0.204265	-0.965257	0.825532	-0.051125	-0.001034	0.001008
02191	9741221	-20.646681	-0.258867	0.457676	0.120653	-0.860593	0.824270	-0.051617	-0.000701	0.001089
02192	9741246	-20.766515	-0.193259	0.526916	0.034864	-0.765632	0.817393	-0.051917	-0.000536	0.001268
02193	9741271	-20.864493	-0.194905	0.611810	-0.036073	-0.658922	0.799865	-0.052162	-0.000539	0.001487
02194	9741296	-21.013262	-0.234833	0.623586	-0.113414	-0.561246	0.779297	-0.052534	-0.000638	0.001522
02195	9741321	-21.065444	-0.351325	0.512977	-0.171995	-0.468658	0.755063	-0.052663	-0.000928	0.001252
02196	9741346	-20.971504	-0.393386	0.364182	-0.216529	-0.370416	0.719416	-0.052428	-0.001030	0.000886
02197	9741371	-20.858106	-0.553007	0.068887	-0.261405	-0.285150	0.695048	-0.052144	-0.001428	0.000154
02198	9741396	-20.619377	-0.699002	-0.242315	-0.292260	-0.197022	0.686593	-0.051547	-0.001792	-0.000618
02199	9741421	-20.208606	-0.862931	-0.526793	-0.319703	-0.101328	0.688739	-0.050519	-0.002201	-0.001323
02200	9741446	-19.819945	-0.943342	-0.732763	-0.324291	-0.003536	0.691635	-0.049548	-0.002402	-0.001831
02201	9741471	-19.356961	-1.023894	-0.928023	-0.324316	0.102738	0.691757	-0.048390	-0.002603	-0.002313
02202	9741496	-18.851315	-0.935715	-1.019096	-0.310564	0.219886	0.673071	-0.047127	-0.002380	-0.002534
02203	9741521	-18.517636	-0.701706	-1.123111	-0.310943	0.346959	0.656484	-0.046294	-0.001793	-0.002787
02204	9741546	-21.191948	-1.420922	-5.368497	-0.434466	0.570524	0.588510	-0.052987	-0.003599	-0.013382
02205	9741571	-20.163832	-1.746998	-12.233447	-0.745744	1.065633	0.368989	-0.050448	-0.004419	-0.030512
02206	9741596	-15.048843	-1.933841	-14.338993	-0.373616	1.570902	0.142874	-0.037692	-0.004858	-0.035771
02207	9741621	-13.091027	-2.207235	-13.313068	-0.394026	1.944224	0.094961	-0.032808	-0.005538	-0.033200
02208	9741646	-13.229851	-2.617306	-11.364631	-0.430822	2.326973	0.148440	-0.033156	-0.006565	-0.028312
02209	9741671	-15.710746	-2.525619	-8.319799	-0.460585	2.625457	0.185000	-0.039343	-0.006335	-0.020667
02210	9741696	-17.856879	-1.439844	-7.789409	-0.492797	2.884321	0.173305	-0.044711	-0.003621	-0.019310
02211	9741721	-19.056143	-0.467864	-6.545318	-0.485673	3.104571	0.146214	-0.047703	-0.001188	-0.016178
02212	9741746	-19.675881	-0.071313	-5.199120	-0.514586	3.293630	0.118536	-0.049243	-0.000194	-0.012795
02213	9741771	-18.298470	0.182751	-2.871746	-0.538732	3.457352	0.108365	-0.045777	0.000446	-0.006982
02214	9741796	-12.598121	1.222721	3.054519	-0.540211	3.432017	0.144533	-0.031463	0.003056	0.007769
02215	9741821	-6.719094	1.711026	9.538368	-0.532584	3.256256	0.193661	-0.016702	0.004289	0.023911
02216	9741846	-2.696253	2.839269	14.527500	-0.567013	3.131726	0.235758	-0.006600	0.007122	0.036340
02217	9741871	-1.123083	4.098109	18.519830	-0.640935	3.051536	0.283312	-0.002635	0.010281	0.046302
02218	9741896	-0.598241	4.534354	20.928070	-0.711067	2.994004	0.304651	-0.001304	0.011382	0.052315
02219	9741921	1.242247	4.222285	22.337398	-0.737638	3.004146	0.277743	0.003312	0.010608	0.055822
02220	9741946	4.923140	3.781910	22.591518	-0.710810	3.033542	0.272239	0.012519	0.009509	0.056423
02221	9741971	7.743317	3.312651	21.177428	-0.654550	3.042420	0.248476	0.019557	0.008331	0.052863
02222	9741996	8.967251	3.125721	18.268050	-0.572988	3.122273	0.272859	0.022593	0.007855	0.045577
02223	9742021	8.537707	1.991899	15.232842	-0.613210	3.276269	0.274003	0.021498	0.005016	0.037990
02224	9742046	6.891227	0.873062	11.633582	-0.623824	3.457529	0.203917	0.017353	0.002210	0.029007
02225	9742071	4.953134	0.280878	8.611024	-0.592282	3.628333	0.146261	0.012480	0.000720	0.021471
02226	9742096	2.803549	-0.039852	6.671123	-0.639200	3.752402	0.097783	0.007087	-0.000085	0.016645
02227	9742121	1.270616	-0.455014	4.611914	-0.622032	3.842720	0.057917	0.003232	-0.001128	0.011515
02228	9742146	-0.828325	-0.917731	3.121335	-0.589854	3.919629	0.033638	-0.002032	-0.002289	0.007815
02229	9742171	-2.038614	-1.549808	2.356738	-0.545577	4.005577	0.041934	-0.005067	-0.003871	0.005920
02230	9742196	-2.774958	-2.446818	2.573798	-0.424137	4.074928	0.051567	-0.006904	-0.006114	0.006473
02231	9742221	-3.334928	-2.620968	3.965902	-0.272724	4.126712	0.079140	-0.008285	-0.006550	0.009960
02232	9742246	-4.476430	-2.483424	5.831102	-0.119235	4.153403	0.133524	-0.011114	-0.006208	0.014637
02233	9742271	-5.604049	-2.498321	8.746813	0.005414	4.160814	0.191078	-0.013895	-0.006249	0.021939
02234	9742296	-6.286703	-2.613710	11.289872	0.094808	4.137573	0.247536	-0.015568	-0.006542	0.028305
02235	9742321	-6.297094	-2.691349	13.994910	0.156482	4.115725	0.264480	-0.015560	-0.006740	0.035066
02236	9742346	-5.998145	-2.828069	16.978588	0.177117	4.054522	0.273181	-0.014778	-0.007085	0.042520
02237	9742371	-5.873174	-3.556743	19.828469	0.156440	3.952578	0.216264	-0.014435	-0.008905	0.049641
02238	9742396	-6.207017	-4.090019	21.270399	0.131663	3.873701	0.122655	-0.015258	-0.010236	0.053249
02239	9742421	-6.355451	-4.287744	21.950429	0.095429	3.775960	0.004742	-0.015629	-0.010726	0.054949
02240	9742446	-6.313364	-4.820487	21.753697	0.074013	3.682345	-0.082079	-0.015534	-0.012055	0.054455
02241	9742471	-6.210600	-5.735039	21.033494	0.053629	3.581221	-0.147860	-0.015294	-0.014338	0.052652
02242	9742496	-6.543726	-6.452515	19.917014	0.020188	3.489965	-0.254194	-0.016147	-0.016127	0.049863
02243	9742521	-6.831307	-6.910771	18.649360	0.028099	3.393334	-0.368513	-0.016888	-0.017271	0.046695
02244	9742546	-6.846075	-6.530575	16.982409	0.061342	3.281068	-0.472022	-0.016951	-0.016320	0.042525
02245	9742571	-6.393823	-5.148124	14.993134	0.087427	3.139944	-0.531088	-0.015846	-0.012864	0.037544
02246	9742596	-5.430936	-2.819393	12.530835	0.123003	3.027237	-0.495575	-0.013463	-0.007045	0.031377
02247	9742621	-4.435392	-0.820712	11.118234	0.137028	2.970929	-0.486168	-0.010986	-0.002050	0.027836
02248	9742646	-3.050842	1.619117	10.884296	0.118165	2.971619	-0.487503	-0.007523	0.004048	0.027239
02249	9742671	-2.777910	3.058011	10.686371	0.177984	3.024735	-0.442133	-0.006839	0.007643	0.026744
02250	9742696	-3.579473	4.081612	12.098936	0.199627	3.031808	-0.385753	-0.008829	0.010201	0.030283
02251	9742721	-4.144870	5.409374	12.975513	0.254110	3.021830	-0.333817	-0.010234	0.013517	0.032482
02252	9742746	-4.740703	6.915463	13.591004	0.279104	2.986636	-0.254489	-0.011719	0.017281	0.034027
02253	9742771	-4.683290	8.270763	13.996463	0.262367	2.950894	-0.163137	-0.011575	0.020668	0.035041
02254	9742796	-4.529258	9.046122	14.684243	0.159873	2.922589	-0.095852	-0.011186	0.022609	0.036756
02255	9742821	-3.685391	9.798766	15.921774	0.012246	2.863832	-0.024471	-0.009070	0.024497	0.039837
02258	9742846	-2.769277	10.586868	18.508761	-0.290535	2.812563	0.132287	-0.006765	0.026483	0.046286
02259	9742871	-5.289286	7.502947	24.513628	-0.720342	2.721847	0.196615	-0.013019	0.018809	0.061312
02260	9742896	-11.348494	4.786142	29.649448	-0.970057	2.546544	0.125605	-0.028137	0.012051	0.074199
02261	9742921	-15.878415	2.650312	32.062101	-1.081311	2.269865	-0.006212	-0.039468	0.006735	0.080258
02262	9742946	-17.498659	1.514188	30.432188	-1.186685	1.856325	-0.103986	-0.043569	0.003904	0.076176
02263	9742971	-16.115811	1.321257	26.359733	-1.209944	1.408484	-0.141640	-0.040173	0.003410	0.065965
02264	9742996	-11.158019	1.794195	21.407692	-1.254722	1.072575	-0.091066	-0.027823	0.004573	0.053549
02265	9743021	-6.162736	3.201228	16.448843	-1.214548	0.929386	-0.022475	-0.015359	0.008066	0.041128
02266	9743046	-3.367485	1.308173	12.764977	-1.268485	0.932827	-0.021184	-0.008381	0.003321	0.031917
02267	9743071	-1.071121	1.631805	10.047291	-1.220993	0.995009	0.017603	-0.002647	0.004118	0.025115
02268	9743096	-0.631380	1.015666	9.608138	-1.161031	0.966667	0.105630	-0.001550	0.002574	0.024019
02269	9743121	-0.966015	-0.127945	8.831104	-1.169025	0.971097	0.112562	-0.002388	-0.000288	0.022081
02270	9743146	-1.086529	-0.997930	9.923495	-1.132887	1.007790	0.085191	-0.002685	-0.002460	0.024816
02271	9743171	-1.674350	-1.166413	10.893720	-1.127315	0.984239	0.075539	-0.004152	-0.002878	0.027243
02272	9743196	-2.824411	-0.831979	12.393486	-1.022107	0.965675	0.058095	-0.007023	-0.002041	0.030995
02273	9743221	-3.542183	-0.505067	13.888373	-0.937781	0.917334	0.041533	-0.008816	-0.001222	0.034733
02274	9743246	-4.600796	0.187604	14.724054	-0.903230	0.849924	0.059643	-0.011463	0.000510	0.036822
02275	9743271	-5.084435	0.451835	14.968997	-0.878053	0.772511	0.060336	-0.012675	0.001170	0.037433
02276	9743296	-5.244746	0.577876	14.800651	-0.876349	0.689283	0.052062	-0.013080	0.001484	0.037011
02277	9743321	-4.729559	0.518716	14.009145	-0.814648	0.620765	0.014922	-0.011797	0.001332	0.035031
02278	9743346	-3.959306	0.585922	13.251450	-0.785624	0.568795	0.004672	-0.009875	0.001497	0.033134
02279	9743371	-2.936565	0.367510	12.050590	-0.784980	0.527378	0.025764	-0.007322	0.000948	0.030130
02280	9743396	-2.399055	0.097453	11.138985	-0.736028	0.512920	0.032553	-0.005980	0.000269	0.027851
02281	9743421	-2.092886	-0.153049	10.820913	-0.683224	0.497683	0.018862	-0.005215	-0.000360	0.027056
02282	9743446	-1.866547	-0.190622	10.552619	-0.653640	0.476183	0.017022	-0.004651	-0.000455	0.026385
02283	9743471	-1.679232	-0.296076	10.466034	-0.603894	0.475386	0.014998	-0.004183	-0.000721	0.026168
02284	9743496	-1.812800	-0.475681	10.381695	-0.505477	0.481503	-0.011437	-0.004516	-0.001173	0.025958
02285	9743521	-1.934620	-0.047796	10.935517	-0.454129	0.470711	-0.020555	-0.004820	-0.000104	0.027342
02286	9743546	-2.187233	0.261477	11.372111	-0.508009	0.458260	0.020212	-0.005452	0.000672	0.028433
02287	9743571	-2.584180	0.332492	11.551390	-0.466868	0.449775	0.016437	-0.006444	0.000848	0.028882
02288	9743596	-3.015142	0.506624	11.683187	-0.423138	0.431927	0.005192	-0.007522	0.001282	0.029211
02289	9743621	-3.159229	0.685665	11.602687	-0.407101	0.392950	0.010698	-0.007884	0.001729	0.029010
02290	9743646	-3.083184	0.695805	11.467284	-0.384851	0.359970	0.001857	-0.007695	0.001753	0.028671
02291	9743671	-2.695913	0.566016	11.222692	-0.349750	0.340861	-0.007251	-0.006728	0.001427	0.028059
02292	9743696	-2.316878	0.332009	10.902054	-0.333826	0.328200	-0.003913	-0.005781	0.000841	0.027257
02293	9743721	-1.741545	-1.283265	11.233298	-0.285168	0.312047	-0.019805	-0.004343	-0.003198	0.028086
02294	9743746	-2.360271	-1.711428	13.521346	0.039750	0.214031	-0.100644	-0.005892	-0.004280	0.033805
02295	9743771	-4.327587	-1.465423	13.280140	0.325926	0.195827	-0.035261	-0.010811	-0.003677	0.033202
02296	9743796	-3.378543	-0.727430	13.141096	0.100602	0.250341	0.003161	-0.008436	-0.001823	0.032855
02297	9743821	-2.229651	0.412394	10.711095	-0.065303	0.216450	0.032112	-0.005567	0.001033	0.026779
02298	9743846	-1.716923	1.126997	8.700245	0.039817	0.232849	0.041988	-0.004286	0.002816	0.021752
02299	9743871	-1.232121	1.530711	8.379197	0.157045	0.242905	0.056693	-0.003074	0.003822	0.020950
02300	9743896	-1.576650	1.603292	9.146970	0.128840	0.195929	0.056244	-0.003936	0.004004	0.022869
02301	9743921	-2.326959	1.358269	10.034187	0.116788	0.158846	0.022511	-0.005813	0.003392	0.025087
02302	9743946	-2.480989	0.941418	10.817629	0.125620	0.173637	-0.019719	-0.006197	0.002349	0.027046
02303	9743971	-2.405891	0.359351	11.299209	0.101045	0.172122	-0.008513	-0.006009	0.000895	0.028249
02304	9743996	-2.391559	0.205314	10.949407	0.077094	0.173593	0.013770	-0.005973	0.000511	0.027375
02305	9744021	-2.261623	0.398863	10.319256	0.072068	0.181775	0.023414	-0.005648	0.000995	0.025800
02306	9744046	-2.077952	0.737907	9.737427	0.095597	0.165400	0.020692	-0.005190	0.001842	0.024345
02307	9744071	-1.924199	0.972391	9.517823	0.096464	0.160253	0.023769	-0.004806	0.002428	0.023796
02308	9744096	-1.817076	0.948643	9.609449	0.106955	0.151424	0.022018	-0.004538	0.002368	0.024025
02309	9744121	-1.868601	0.932719	9.823200	0.104968	0.150599	0.010282	-0.004667	0.002329	0.024559
02310	9744146	-2.037208	0.894757	10.048760	0.097138	0.160587	0.008358	-0.005088	0.002234	0.025123
02311	9744171	-2.161442	0.792665	10.142650	0.084315	0.158358	0.012773	-0.005399	0.001979	0.025358
02312	9744196	-2.224761	0.720144	10.066651	0.082476	0.153889	0.006518	-0.005557	0.001798	0.025168
02313	9744221	-2.139034	0.647900	9.889823	0.080444	0.154150	0.010581	-0.005343	0.001617	0.024726
02314	9744246	-1.966571	0.663543	9.750514	0.079189	0.148299	0.017153	-0.004912	0.001656	0.024377
02315	9744271	-1.866985	0.657311	9.567275	0.078478	0.155304	0.017902	-0.004663	0.001641	0.023919
02316	9744296	-1.715105	0.762203	9.461468	0.079249	0.151204	0.025691	-0.004283	0.001903	0.023655
02317	9744321	-1.702734	0.729227	9.437469	0.077210	0.153022	0.022869	-0.004252	0.001821	0.023595
02318	9744346	-1.777231	0.737233	9.517135	0.075562	0.155903	0.014383	-0.004438	0.001841	0.023794
02319	9744371	-1.837996	0.732854	9.584817	0.079757	0.154129	0.008172	-0.004590	0.001830	0.023963
02320	9744396	-1.875244	0.682059	9.575319	0.085695	0.151990	0.003634	-0.004684	0.001703	0.023939
02321	9744421	-1.799460	0.665641	9.544762	0.073077	0.157747	-0.003277	-0.004494	0.001662	0.023863
02322	9744446	-1.700043	0.693477	9.446632	0.076619	0.159821	-0.001976	-0.004245	0.001731	0.023618
02323	9744471	-1.724594	0.688323	9.362937	0.080682	0.163643	-0.011177	-0.004307	0.001719	0.023408
02324	9744496	-1.736955	0.711677	9.357698	0.085205	0.162221	-0.015408	-0.004338	0.001777	0.023395
02325	9744521	-1.789302	0.754193	9.396326	0.082658	0.157514	-0.016701	-0.004469	0.001883	0.023492
02326	9744546	-1.800554	0.778509	9.503977	0.084765	0.157306	-0.025856	-0.004497	0.001944	0.023761
02327	9744571	-1.886141	0.754874	9.584869	0.078446	0.155199	-0.037502	-0.004711	0.001885	0.023963
02328	9744596	-1.996088	0.863612	9.558598	0.079207	0.148077	-0.044881	-0.004986	0.002157	0.023898
02329	9744621	-1.899258	0.941092	9.414138	0.064325	0.158368	-0.045191	-0.004743	0.002351	0.023536
02330	9744646	-1.745032	0.801177	9.334062	0.064245	0.154197	-0.053592	-0.004358	0.002001	0.023336
02331	9744671	-1.669540	0.670471	9.353614	0.069070	0.158212	-0.063424	-0.004169	0.001674	0.023385
02332	9744696	-1.766125	0.659160	9.439861	0.077327	0.155160	-0.068711	-0.004411	0.001646	0.023601
02333	9744721	-1.923235	0.823599	9.587734	0.073177	0.147817	-0.070019	-0.004803	0.002057	0.023970
02334	9744746	-2.084247	1.017246	9.663979	0.071843	0.148989	-0.068825	-0.005206	0.002541	0.024161
02335	9744771	-2.237431	1.092118	9.864691	0.072880	0.140482	-0.078373	-0.005589	0.002729	0.024663
02336	9744796	-2.325685	1.152245	9.969781	0.082657	0.129972	-0.092685	-0.005810	0.002879	0.024926
02337	9744821	-2.497342	1.328520	9.877294	0.052643	0.109690	-0.094314	-0.006240	0.003320	0.024694
02338	9744846	-2.330762	1.216093	9.807934	0.019382	0.105885	-0.090615	-0.005823	0.003040	0.024521
02339	9744871	-2.215445	1.049553	9.853929	0.016364	0.102164	-0.099166	-0.005535	0.002624	0.024636
02340	9744896	-2.362611	1.049744	9.810044	0.015439	0.089610	-0.104775	-0.005903	0.002625	0.024526
02341	9744921	-2.469986	0.952446	9.725964	0.010704	0.072987	-0.100157	-0.006172	0.002382	0.024316
02342	9744946	-2.169947	0.928897	9.749967	0.005373	0.072470	-0.089991	-0.005422	0.002323	0.024375
02343	9744971	-1.915799	0.812751	9.918396	-0.005743	0.070551	-0.087453	-0.004787	0.002033	0.024796
02344	9744996	-1.896217	0.844852	9.806953	0.011373	0.071356	-0.100055	-0.004738	0.002112	0.024518
02345	9745021	-2.071032	0.821657	9.774891	0.050840	0.075416	-0.115360	-0.005175	0.002053	0.024438
02346	9745046	-2.050044	0.920900	9.699529	0.095715	0.066426	-0.135633	-0.005123	0.002300	0.024250
02347	9745071	-1.995894	0.998331	9.571001	0.118741	0.063716	-0.150923	-0.004987	0.002493	0.023928
02348	9745096	-1.986306	0.988663	9.566985	0.102153	0.070034	-0.150868	-0.004963	0.002470	0.023918
02349	9745121	-2.020756	0.976227	9.573572	0.064647	0.077699	-0.144230	-0.005049	0.002440	0.023935
02350	9745146	-2.100790	0.859345	9.581099	0.027922	0.080323	-0.131404	-0.005249	0.002148	0.023953
02351	9745171	-2.131182	0.807099	9.591537	-0.006336	0.085354	-0.108626	-0.005325	0.002019	0.023979
02352	9745196	-2.260294	0.854155	9.510611	-0.032336	0.082354	-0.084570	-0.005648	0.002137	0.023777
02353	9745221	-2.200489	0.892058	9.263726	-0.157239	0.097892	-0.045757	-0.005498	0.002235	0.023160
02354	9745246	-1.911077	0.902782	9.728784	-0.221719	0.099635	-0.027399	-0.004775	0.002264	0.024322
02355	9745271	-1.995214	0.760047	9.691062	-0.227344	0.107285	-0.026819	-0.004985	0.001907	0.024228
02356	9745296	-2.075508	0.771754	9.895595	-0.189108	0.104229	-0.038238	-0.005185	0.001935	0.024739
02357	9745321	-2.156908	0.608280	9.865766	-0.115807	0.094913	-0.052883	-0.005389	0.001525	0.024665
02360	9745346	-2.155324	0.620947	9.783474	-0.044818	0.087097	-0.058299	-0.005386	0.001554	0.024459
02361	9745371	-2.133015	0.644580	9.691935	0.000656	0.082904	-0.059660	-0.005330	0.001612	0.024230
02362	9745396	-2.040643	0.665329	9.648230	0.018911	0.074825	-0.061984	-0.005099	0.001663	0.024121
02363	9745421	-2.112051	0.680704	9.565890	0.015014	0.078610	-0.053935	-0.005278	0.001702	0.023915
02364	9745446	-2.077473	0.835886	9.606277	-0.012763	0.083637	-0.043328	-0.005191	0.002090	0.024016
02365	9745471	-2.059516	0.882634	9.610425	-0.039731	0.084575	-0.043032	-0.005146	0.002208	0.024026
02366	9745496	-2.070394	0.859567	9.535953	-0.056188	0.086921	-0.042082	-0.005173	0.002151	0.023840
02367	9745521	-2.071874	0.860774	9.579802	-0.067571	0.090089	-0.037587	-0.005177	0.002154	0.023950
02368	9745546	-2.047253	0.791892	9.614114	-0.080235	0.085358	-0.041503	-0.005115	0.001982	0.024036
02369	9745571	-2.098282	0.798721	9.647311	-0.070943	0.081287	-0.046334	-0.005243	0.001999	0.024119
02370	9745596	-2.158875	0.767109	9.643181	-0.051369	0.081651	-0.049749	-0.005395	0.001920	0.024108
02371	9745621	-2.152212	0.718791	9.696150	-0.034073	0.077933	-0.052156	-0.005378	0.001798	0.024241
02372	9745646	-2.120337	0.720478	9.609844	-0.018440	0.072981	-0.055531	-0.005299	0.001802	0.024025
02373	9745671	-2.099653	0.746576	9.609939	-0.000545	0.067708	-0.050485	-0.005247	0.001867	0.024025
02374	9745696	-2.033266	0.797757	9.519840	0.000636	0.065070	-0.051229	-0.005081	0.001995	0.023800
02375	9745721	-2.013893	0.828070	9.502691	-0.003795	0.065644	-0.059862	-0.005033	0.002071	0.023757
02376	9745746	-2.016600	0.814388	9.477407	-0.013782	0.059840	-0.066306	-0.005040	0.002037	0.023694
02377	9745771	-2.035834	0.848806	9.473520	-0.025904	0.064948	-0.069080	-0.005087	0.002123	0.023684
02378	9745796	-2.070317	0.808923	9.473368	-0.041553	0.063719	-0.070672	-0.005174	0.002024	0.023684
02379	9745821	-2.064688	0.833776	9.453527	-0.045216	0.058438	-0.076045	-0.005160	0.002086	0.023634
02380	9745846	-2.001030	0.846502	9.319485	-0.076982	0.058608	-0.076355	-0.005001	0.002119	0.023299
02381	9745871	-1.744425	0.843893	9.692824	-0.083926	0.043362	-0.100076	-0.004359	0.002113	0.024232
02382	9745896	-2.189269	0.958421	9.212146	-0.060421	0.055617	-0.108904	-0.005471	0.002399	0.023031
02383	9745921	-2.149397	0.768219	9.716249	-0.077252	0.058489	-0.104006	-0.005371	0.001924	0.024291
02384	9745946	-2.276025	0.720293	9.665542	-0.062181	0.038801	-0.112729	-0.005689	0.001803	0.024164
02385	9745971	-2.288002	0.715510	9.478234	-0.058384	0.035225	-0.106966	-0.005719	0.001791	0.023696
02386	9745996	-2.151982	0.713627	9.609803	-0.044413	0.033604	-0.099270	-0.005379	0.001786	0.024025
02387	9746021	-2.128439	0.599940	9.476627	-0.041072	0.024442	-0.105730	-0.005320	0.001502	0.023692
02388	9746046	-2.082871	0.660531	9.456931	-0.044362	0.016984	-0.094666	-0.005206	0.001653	0.023642
02389	9746071	-2.165391	0.766284	9.489102	-0.047384	0.010009	-0.089210	-0.005413	0.001918	0.023723
02390	9746096	-2.190241	0.773055	9.522325	-0.049154	0.004397	-0.091004	-0.005475	0.001935	0.023806
02391	9746121	-2.077259	0.849932	9.537257	-0.052464	0.000465	-0.096688	-0.005193	0.002127	0.023843
02392	9746146	-2.069094	0.822371	9.553113	-0.062048	-0.003789	-0.098607	-0.005173	0.002058	0.023883
02393	9746171	-2.095196	0.729186	9.475752	-0.075312	-0.001778	-0.098209	-0.005238	0.001826	0.023689
02394	9746196	-2.190384	0.690528	9.526042	-0.084937	-0.009243	-0.095733	-0.005476	0.001730	0.023815
02395	9746221	-2.263451	0.723341	9.591184	-0.088342	-0.017340	-0.092253	-0.005659	0.001812	0.023978
02396	9746246	-2.209840	0.612082	9.545693	-0.081667	-0.017270	-0.095320	-0.005525	0.001533	0.023864
02397	9746271	-2.145027	0.717815	9.584593	-0.083433	-0.025019	-0.086598	-0.005363	0.001798	0.023961
02398	9746296	-2.034668	0.672900	9.459660	-0.083727	-0.027536	-0.079523	-0.005087	0.001685	0.023649
02399	9746321	-1.918995	0.674293	9.445128	-0.081165	-0.019811	-0.078484	-0.004798	0.001689	0.023613
02400	9746346	-1.866987	0.646287	9.572577	-0.087091	-0.020584	-0.079484	-0.004668	0.001619	0.023931
02401	9746371	-1.825636	0.658784	9.544720	-0.088750	-0.012967	-0.093447	-0.004564	0.001650	0.023862
02402	9746396	-1.860024	0.701375	9.548846	-0.089943	0.007015	-0.096473	-0.004650	0.001757	0.023872
02403	9746421	-1.930752	0.492028	9.647718	-0.092731	0.017555	-0.095741	-0.004826	0.001233	0.024119
02404	9746446	-2.099863	0.669401	9.666813	-0.080188	0.009504	-0.087745	-0.005249	0.001676	0.024167
02405	9746471	-2.032136	0.525831	9.443211	-0.067823	0.017929	-0.093767	-0.005080	0.001317	0.023608
02406	9746496	-1.872690	0.622756	9.630921	-0.042212	0.028431	-0.098468	-0.004681	0.001559	0.024077
02407	9746521	-1.831547	0.671914	9.717424	-0.029837	0.044432	-0.092842	-0.004577	0.001681	0.024294
02408	9746546	-1.984703	0.443609	9.719249	-0.033759	0.049944	-0.076708	-0.004960	0.001111	0.024298
02409	9746571	-2.156412	0.628156	9.667955	-0.040565	0.056736	-0.089769	-0.005389	0.001572	0.024170
02410	9746596	-2.124663	0.754538	9.697601	-0.016521	0.065295	-0.078502	-0.005309	0.001887	0.024244
02411	9746621	-2.022986	0.564837	9.670467	-0.006881	0.081769	-0.075760	-0.005055	0.001413	0.024177
02412	9746646	-1.790161	0.643161	9.658918	-0.014284	0.091635	-0.070591	-0.004472	0.001609	0.024148
02413	9746671	-1.776367	0.479990	9.548141	-0.009510	0.122714	-0.061600	-0.004437	0.001201	0.023871
02414	9746696	-1.846797	0.578411	9.711802	-0.003263	0.140467	-0.074944	-0.004613	0.001447	0.024280
02415	9746721	-2.008825	0.790484	9.645992	0.012083	0.145017	-0.057511	-0.005018	0.001976	0.024116
02416	9746746	-2.043429	0.518500	9.566711	0.030652	0.156236	-0.036359	-0.005104	0.001296	0.023918
02417	9746771	-1.878403	0.595026	9.675966	0.029118	0.179416	-0.028610	-0.004691	0.001487	0.024191
02418	9746796	-1.924163	0.475207	9.736641	0.033014	0.196917	-0.009553	-0.004804	0.001187	0.024343
02419	9746821	-1.930788	0.734911	9.785306	0.034417	0.221913	-0.000075	-0.004820	0.001836	0.024465
02420	9746846	-2.081987	0.654330	9.648167	0.050865	0.250380	0.023772	-0.005197	0.001634	0.024122
02421	9746871	-2.265761	0.451714	9.784181	0.059414	0.274411	0.046547	-0.005656	0.001127	0.024462
02422	9746896	-2.006600	0.615500	9.742352	0.070600	0.288856	0.074911	-0.005008	0.001536	0.024358
02423	9746921	-1.930900	0.417744	9.656755	0.073734	0.316170	0.092879	-0.004818	0.001042	0.024144
02424	9746946	-2.093226	0.792597	9.813328	0.080751	0.322227	0.115277	-0.005223	0.001978	0.024536
02425	9746971	-2.113544	0.564008	9.530939	0.102296	0.347289	0.147589	-0.005274	0.001406	0.023830
02426	9746996	-2.152564	0.645554	9.788877	0.101499	0.368674	0.167689	-0.005370	0.001610	0.024475
02427	9747021	-1.981493	0.823169	9.729765	0.115377	0.388870	0.186577	-0.004942	0.002053	0.024327
02428	9747046	-2.002521	0.601565	9.774212	0.130044	0.429253	0.196083	-0.004994	0.001499	0.024438
02429	9747071	-2.363557	0.760360	9.992348	0.148444	0.449856	0.218549	-0.005895	0.001895	0.024985
02430	9747096	-2.469444	0.520563	9.769686	0.154616	0.463942	0.245777	-0.006160	0.001295	0.024428
02431	9747121	-2.475912	0.637680	9.706296	0.166129	0.479505	0.284895	-0.006176	0.001587	0.024270
02432	9747146	-2.298009	0.688940	9.600320	0.162871	0.484639	0.332642	-0.005731	0.001715	0.024005
02433	9747171	-2.047159	0.556184	9.414066	0.157397	0.505087	0.369856	-0.005104	0.001383	0.023539
02434	9747196	-1.435141	0.458911	9.661068	0.147215	0.528389	0.374112	-0.003572	0.001141	0.024155
02435	9747221	-0.970062	0.860573	9.984182	0.183892	0.543258	0.311802	-0.002409	0.002145	0.024963
02436	9747246	-1.229449	1.242092	9.840542	0.273250	0.575826	0.219606	-0.003057	0.003096	0.024605
02437	9747271	-1.551979	1.119305	9.940868	0.360833	0.627865	0.128974	-0.003861	0.002786	0.024856
02438	9747296	-1.784946	1.081900	10.009753	0.410077	0.660396	0.071882	-0.004442	0.002692	0.025029
02439	9747321	-1.828033	0.763214	9.960856	0.435174	0.694147	0.057270	-0.004549	0.001894	0.024907
02440	9747346	-2.223714	1.009724	8.622683	0.297542	0.732839	0.076312	-0.005540	0.002516	0.021563
02441	9747371	-2.316170	1.880897	7.612260	-0.163549	0.741151	0.130521	-0.005774	0.004705	0.019035
02442	9747396	-2.711125	1.852063	7.032906	-0.526412	0.739801	0.207974	-0.006763	0.004640	0.017585
02443	9747421	-3.457232	0.753915	8.690219	-0.385754	0.743681	0.229584	-0.008623	0.001893	0.021733
02444	9747446	-3.119867	0.039363	10.986966	0.002281	0.638430	0.180367	-0.007778	0.000097	0.027474
02445	9747471	-1.926242	1.236193	9.781583	-0.089504	0.555617	0.162384	-0.004799	0.003092	0.024457
02446	9747496	-1.519725	1.031106	8.516891	-0.279777	0.693615	0.200428	-0.003781	0.002584	0.021295
02447	9747521	-1.571909	0.377428	9.865309	-0.145917	0.775001	0.151578	-0.003906	0.000947	0.024667
02448	9747546	-0.728313	0.654459	9.529413	-0.053009	0.686951	0.045526	-0.001800	0.001638	0.023825
02449	9747571	-1.532938	1.276350	8.419408	-0.003935	0.707933	-0.015992	-0.003814	0.003191	0.021052
02450	9747596	-2.278285	0.413960	9.899765	-0.015217	0.810990	0.013681	-0.005671	0.001035	0.024755
02451	9747621	-2.947062	0.597073	10.287737	-0.063489	0.830636	0.019732	-0.007341	0.001495	0.025727
02452	9747646	-3.122848	1.076585	9.298236	-0.042649	0.822359	0.035565	-0.007783	0.002692	0.023253
02453	9747671	-2.165901	0.838893	9.210313	-0.036621	0.806715	0.025670	-0.005392	0.002098	0.023031
02454	9747696	-1.357023	0.776265	9.369970	0.006969	0.811385	-0.007445	-0.003369	0.001940	0.023428
02455	9747721	-1.352316	0.563690	9.558026	-0.016721	0.908345	-0.025024	-0.003354	0.001410	0.023899
02456	9747746	-1.354022	0.657945	9.752223	-0.021699	0.997392	-0.066546	-0.003355	0.001646	0.024385
02457	9747771	-1.750747	0.658400	9.300311	0.022003	1.027961	-0.125040	-0.004347	0.001646	0.023256
02458	9747796	-1.493850	0.883036	9.104521	0.062995	1.066447	-0.161654	-0.003704	0.002207	0.022766
02459	9747821	-1.572024	0.613912	9.381361	0.040950	1.133588	-0.180613	-0.003896	0.001534	0.023459
02462	9747846	-2.090038	0.807067	9.616749	0.059545	1.180958	-0.194298	-0.005189	0.002017	0.024050
02463	9747871	-1.775780	0.487611	9.354200	0.067177	1.225184	-0.211199	-0.004403	0.001218	0.023392
02464	9747896	-0.579013	0.423380	11.016943	0.180627	1.275224	-0.235084	-0.001403	0.001053	0.027545
02465	9747921	1.229995	0.721044	7.616718	-0.208551	1.441809	-0.208338	0.003110	0.001807	0.019036
02466	9747946	0.845812	-0.461966	8.269865	-0.021075	1.713878	-0.336474	0.002158	-0.001155	0.020670
02467	9747971	-1.252149	1.012396	9.027836	0.179537	1.795802	-0.462375	-0.003078	0.002528	0.022577
02468	9747996	-3.019423	0.188478	9.684675	0.095017	1.940437	-0.356751	-0.007490	0.000472	0.024230
02469	9748021	-1.579063	0.285439	9.330299	0.173208	2.032555	-0.361088	-0.003888	0.000710	0.023336
02470	9748046	-1.539455	0.713642	9.238807	0.185657	2.147165	-0.396367	-0.003786	0.001781	0.023108
02471	9748071	-2.327370	1.867185	8.722453	0.118283	2.309667	-0.453814	-0.005753	0.004668	0.021823
02472	9748096	-2.637539	1.224653	9.156228	0.090771	2.388210	-0.494780	-0.006524	0.003063	0.022910
02473	9748121	-3.343097	1.257554	10.045711	0.059079	2.452695	-0.503837	-0.008279	0.003147	0.025140
02474	9748146	0.486793	-0.112599	8.294107	0.160590	2.693159	-0.469650	0.001287	-0.000286	0.020731
02475	9748171	0.922723	-0.817445	8.280206	0.234965	2.848003	-0.432883	0.002379	-0.002051	0.020692
02476	9748196	0.662653	0.174797	9.046015	0.306708	3.022994	-0.426010	0.001742	0.000427	0.022609
02477	9748221	-1.625354	0.970824	10.731248	0.369325	3.203142	-0.454974	-0.003955	0.002417	0.026845
02478	9748246	-2.735865	1.257627	9.783419	0.429749	3.310811	-0.469488	-0.006737	0.003135	0.024488
02479	9748271	-1.858766	1.437195	9.474268	0.438084	3.413213	-0.459911	-0.004544	0.003583	0.023707
02480	9748296	-0.854252	2.144891	10.239119	0.441212	3.568410	-0.525247	-0.002018	0.005349	0.025610
02481	9748321	-2.294990	1.689053	11.391805	0.511562	3.782941	-0.610199	-0.005599	0.004209	0.028509
02482	9748346	-3.404575	1.773269	11.280366	0.583353	3.950796	-0.724158	-0.008368	0.004420	0.028246
02483	9748371	-3.382929	1.040916	10.364460	0.673869	4.096986	-0.780400	-0.008322	0.002589	0.025956
02484	9748396	-5.300404	1.197333	11.340078	0.718485	4.137630	-0.789896	-0.013101	0.002981	0.028421
02485	9748421	2.510605	1.013461	10.077920	0.745122	4.359550	-0.827233	0.006416	0.002504	0.025162
02486	9748446	2.162904	0.184081	12.470676	0.773807	4.650436	-0.789844	0.005589	0.000425	0.031145
02487	9748471	1.372095	0.686546	14.384893	0.821174	4.878231	-0.752794	0.003651	0.001676	0.035942
02488	9748496	2.015416	2.834500	14.265725	0.772869	5.179850	-0.800665	0.005276	0.007047	0.035637
02489	9748521	1.460752	2.086138	15.973107	0.704884	5.412343	-0.881086	0.003928	0.005176	0.039911
02490	9748546	1.173440	2.180738	14.487332	0.688170	5.632625	-0.916926	0.003195	0.005417	0.036201
02491	9748571	-0.061410	2.064359	16.173383	0.537248	5.840105	-0.927938	0.000148	0.005134	0.040437
02492	9748596	-1.164001	2.574771	15.914142	0.463815	6.067619	-0.972886	-0.002600	0.006417	0.039810
02493	9748621	-1.886086	3.134349	16.688287	0.240637	6.250757	-0.988053	-0.004379	0.007829	0.041758
02494	9748646	-1.767839	1.088040	13.974075	0.082257	6.473898	-1.021714	-0.004133	0.002722	0.034970
02495	9748671	-4.605405	1.181208	13.460466	0.126338	6.658664	-1.086866	-0.011229	0.002963	0.033746
02496	9748696	-4.479522	2.312225	12.794081	0.162626	6.814302	-1.145689	-0.010918	0.005790	0.032080
02497	9748721	-5.259336	2.940714	12.797985	0.176483	6.975749	-1.240334	-0.012857	0.007365	0.032110
02498	9748746	-4.412851	2.168159	12.579652	0.204661	7.158792	-1.370823	-0.010741	0.005431	0.031548
02499	9748771	-3.924418	1.246630	12.326095	0.287443	7.341171	-1.499258	-0.009522	0.003124	0.030905
02500	9748796	-3.405454	0.571966	12.304362	0.419046	7.503318	-1.612314	-0.008222	0.001431	0.030840
02501	9748821	-3.593719	0.847589	12.465711	0.554830	7.660173	-1.714861	-0.008681	0.002116	0.031250
02502	9748846	-3.104962	1.488688	12.984292	0.664339	7.821239	-1.816150	-0.007436	0.003712	0.032538
02503	9748871	-2.571410	2.226960	13.764250	0.764547	7.959487	-1.906168	-0.006072	0.005549	0.034478
02504	9748896	-2.028913	2.100170	15.857332	0.837696	8.044803	-2.013249	-0.004660	0.005221	0.039697
02505	9748921	-1.483832	2.835824	16.987084	0.882152	8.151005	-2.135302	-0.003258	0.007052	0.042510
02506	9748946	-1.470383	3.054181	16.434919	0.908664	8.321606	-2.261643	-0.003227	0.007598	0.041131
02507	9748971	1.303061	2.839985	15.367710	0.955776	8.522163	-2.426797	0.003688	0.007043	0.038390
02508	9748996	0.127789	2.288168	14.517428	0.999518	8.688241	-2.563271	0.000732	0.005673	0.036294
02509	9749021	-0.762878	1.954712	14.135960	1.004571	8.966823	-2.616090	-0.001495	0.004848	0.035364
02510	9749046	2.164149	2.705696	13.662990	1.009618	9.296405	-2.812986	0.005830	0.006701	0.034100
02511	9749071	1.613472	3.249445	11.581949	1.006562	9.454980	-2.909011	0.004405	0.008072	0.028914
02512	9749096	1.180501	2.171948	12.431391	0.936231	9.709327	-2.966729	0.003348	0.005382	0.031046
02513	9749121	1.504022	2.426413	10.429128	0.933987	9.750833	-3.019435	0.004100	0.006021	0.026031
02514	9749146	1.799356	3.013466	8.066495	0.958836	9.880551	-3.095835	0.004776	0.007491	0.020117
02515	9749171	3.031459	3.477958	8.409566	0.923581	10.217920	-3.185811	0.007881	0.008640	0.020935
02516	9749196	3.803832	3.198229	8.310289	0.895313	10.309181	-3.250257	0.009809	0.007933	0.020660
02517	9749221	3.224748	2.812334	7.649225	0.894243	10.306854	-3.307581	0.008336	0.006975	0.019025
02518	9749246	3.944003	2.973656	7.211003	0.866087	10.303043	-3.450445	0.010123	0.007371	0.017906
02519	9749271	2.848325	5.098397	7.485835	0.962921	10.302311	-3.480505	0.007416	0.012692	0.018636
02520	9749296	1.250630	8.674102	10.640347	1.216415	10.303516	-3.351399	0.003560	0.021631	0.026590
02521	9749321	3.827370	10.780836	21.330311	1.420894	10.308062	-2.928839	0.010353	0.026821	0.053243
02522	9749346	-4.821275	11.398918	24.043031	2.050139	9.453609	-2.437015	-0.011255	0.028378	0.060317
02523	9749371	-21.945093	11.658183	41.600715	3.353821	8.473695	-2.141024	-0.053679	0.028852	0.104696
02524	9749396	-43.111521	14.563239	66.552252	3.570929	6.357572	-1.630016	-0.106378	0.035880	0.167391
02525	9749421	-46.601907	17.599002	57.461558	2.624198	4.863633	-1.045285	-0.115571	0.043676	0.144502
02526	9749446	-35.542274	21.561717	64.479134	2.706388	4.087829	-0.951179	-0.087966	0.053462	0.161830
02527	9749471	-23.265249	24.389323	65.540580	1.745692	2.877105	-1.204746	-0.057481	0.060702	0.164192
02528	9749496	-14.002349	23.879961	56.441884	1.311537	2.107369	-1.852699	-0.034496	0.059549	0.141294
02529	9749521	-6.165919	23.502548	51.192423	1.067993	1.617047	-2.306359	-0.014987	0.058629	0.128090
02530	9749546	-0.792024	20.106591	43.598163	0.883497	1.136200	-1.894066	-0.001706	0.050150	0.109053
02531	9749571	3.181529	18.101078	38.891536	1.116612	0.711355	-1.482436	0.008124	0.045102	0.097285
02532	9749596	5.989833	19.102949	36.460404	1.438549	0.278703	-1.263727	0.015082	0.047570	0.091231
02533	9749621	6.553424	20.487414	35.339876	1.598680	-0.123797	-1.016502	0.016435	0.051021	0.088454
02534	9749646	5.551742	20.791814	34.663178	1.536751	-0.521021	-0.750951	0.013872	0.051800	0.086767
02535	9749671	4.516629	19.949452	32.855989	1.375408	-0.934619	-0.510738	0.011227	0.049725	0.082239
02536	9749696	4.256936	18.846737	30.434959	1.251299	-1.347969	-0.314336	0.010533	0.046994	0.076179
02537	9749721	4.549395	18.145702	27.398422	1.139192	-1.725676	-0.117710	0.011232	0.045265	0.068585
02538	9749746	5.093698	17.747801	24.543431	1.003080	-2.028191	0.084023	0.012574	0.044294	0.061446
02539	9749771	5.595114	17.363218	21.831718	0.851910	-2.250966	0.280805	0.013819	0.043355	0.054665
02540	9749796	5.960553	16.732868	19.399382	0.696024	-2.415822	0.485697	0.014729	0.041799	0.048579
02541	9749821	6.300460	15.569939	17.531973	0.569774	-2.550251	0.663319	0.015579	0.038907	0.043907
02542	9749846	6.295315	14.415371	15.991214	0.495323	-2.669065	0.815000	0.015568	0.036030	0.040052
02543	9749871	5.937136	13.439192	14.879978	0.454032	-2.779493	0.967471	0.014673	0.033595	0.037270
02544	9749896	5.568586	12.534656	14.094547	0.388646	-2.889510	1.112723	0.013750	0.031339	0.035301
02545	9749921	5.220457	11.749336	13.427829	0.310102	-3.002996	1.248454	0.012879	0.029381	0.033630
02546	9749946	4.930536	10.960949	12.832721	0.186399	-3.105313	1.380446	0.012154	0.027416	0.032136
02547	9749971	4.609049	10.076117	11.991489	0.084159	-3.194739	1.500093	0.011356	0.025209	0.030027
02548	9749996	4.334122	9.192101	11.269816	0.007328	-3.297726	1.596632	0.010673	0.023001	0.028219
02549	9750021	4.078697	8.398918	10.508797	-0.049858	-3.396201	1.692972	0.010041	0.021020	0.026314
02550	9750046	4.049711	7.657290	9.948586	-0.107788	-3.475601	1.775260	0.009974	0.019169	0.024912
02551	9750071	3.914429	6.903579	9.633670	-0.143515	-3.543028	1.853495	0.009639	0.017286	0.024124
02552	9750096	3.543333	6.057408	9.422126	-0.187341	-3.601845	1.928955	0.008716	0.015170	0.023591
02553	9750121	3.179802	5.142017	9.372380	-0.229068	-3.659577	2.007385	0.007810	0.012881	0.023463
02554	9750146	2.809245	4.323563	9.480947	-0.248906	-3.723739	2.062673	0.006885	0.010834	0.023731
02555	9750171	2.369932	3.651983	9.641775	-0.287110	-3.789027	2.111296	0.005786	0.009154	0.024129
02556	9750196	1.929257	3.097229	9.854917	-0.330429	-3.861979	2.144626	0.004683	0.007766	0.024657
02557	9750221	1.494132	2.483092	10.099634	-0.377042	-3.933103	2.168539	0.003594	0.006230	0.025264
02558	9750246	1.107633	1.941091	10.210628	-0.425815	-4.005247	2.187504	0.002628	0.004874	0.025537
02559	9750271	0.787073	1.405798	10.326810	-0.472332	-4.081971	2.189400	0.001826	0.003535	0.025825
02560	9750296	0.505226	0.961369	10.438109	-0.516601	-4.159801	2.193882	0.001121	0.002423	0.026100
02561	9750321	0.209694	0.521066	10.534776	-0.565231	-4.229316	2.188444	0.000381	0.001322	0.026338
02564	9750346	-0.044440	0.112513	10.603688	-0.606716	-4.304360	2.174599	-0.000255	0.000301	0.026508
02565	9750371	-0.357603	-0.337376	10.669632	-0.653427	-4.369524	2.164141	-0.001037	-0.000824	0.026669
02566	9750396	-0.735744	-1.002773	10.675217	-0.690998	-4.438062	2.140393	-0.001981	-0.002489	0.026679
02567	9750421	-1.072643	-1.757380	10.630057	-0.715134	-4.502338	2.107190	-0.002820	-0.004377	0.026563
02568	9750446	-1.322593	-2.605066	10.489126	-0.725979	-4.572537	2.057177	-0.003440	-0.006498	0.026209
02569	9750471	-1.503696	-3.375567	10.289965	-0.710310	-4.635364	2.000222	-0.003887	-0.008426	0.025710
02570	9750496	-1.605813	-4.058059	10.059184	-0.680514	-4.692813	1.931532	-0.004138	-0.010134	0.025133
02571	9750521	-1.700821	-4.593001	9.721369	-0.649980	-4.753493	1.865759	-0.004370	-0.011473	0.024287
02572	9750546	-1.760818	-5.082245	9.710270	-0.634357	-4.786437	1.801292	-0.004519	-0.012696	0.024259
02573	9750571	-1.835853	-5.412732	9.447767	-0.533717	-4.839214	1.725321	-0.004703	-0.013526	0.023600
02574	9750596	-2.016957	-5.569896	9.215783	-0.471264	-4.881364	1.644080	-0.005154	-0.013922	0.023016
02575	9750621	-2.130946	-5.615022	9.162561	-0.388546	-4.918449	1.563624	-0.005441	-0.014037	0.022880
02576	9750646	-2.268390	-5.607639	9.028252	-0.317224	-4.938489	1.504758	-0.005784	-0.014021	0.022541
02577	9750671	-2.448551	-5.557797	8.951322	-0.242284	-4.961357	1.446132	-0.006235	-0.013899	0.022344
02578	9750696	-2.614585	-5.379976	8.826886	-0.174080	-4.979588	1.383867	-0.006650	-0.013457	0.022029
02579	9750721	-2.718758	-5.139072	8.761289	-0.104960	-4.990511	1.320596	-0.006912	-0.012856	0.021862
02580	9750746	-2.842034	-4.863749	8.675805	-0.055500	-4.995974	1.259900	-0.007221	-0.012169	0.021646
02581	9750771	-2.899488	-4.561154	8.651562	-0.002269	-4.995383	1.204646	-0.007366	-0.011414	0.021583
02582	9750796	-2.952912	-4.249128	8.683132	0.033473	-4.988873	1.148303	-0.007502	-0.010634	0.021661
02583	9750821	-3.028423	-3.941402	8.747739	0.069677	-4.980806	1.101190	-0.007693	-0.009866	0.021821
02584	9750846	-3.156480	-3.662874	8.914555	0.103027	-4.971356	1.060429	-0.008017	-0.009171	0.022236
02585	9750871	-3.291610	-3.413462	9.127791	0.124902	-4.962312	1.025468	-0.008359	-0.008548	0.022767
02586	9750896	-3.505424	-3.155874	9.386200	0.150378	-4.948587	0.982352	-0.008899	-0.007905	0.023409
02587	9750921	-3.711036	-2.905550	9.736158	0.167282	-4.941974	0.959918	-0.009419	-0.007280	0.024281
02588	9750946	-3.868797	-2.695180	10.108781	0.171682	-4.928967	0.930371	-0.009820	-0.006755	0.025210
02589	9750971	-4.002935	-2.443826	10.545068	0.177358	-4.923328	0.917798	-0.010162	-0.006127	0.026299
02590	9750996	-4.236305	-2.109920	10.969695	0.178350	-4.923879	0.899696	-0.010753	-0.005293	0.027357
02591	9751021	-4.401946	-1.732020	11.395903	0.161293	-4.917597	0.877505	-0.011175	-0.004348	0.028421
02592	9751046	-4.979205	-1.556139	11.832516	0.162448	-5.059182	0.890295	-0.012630	-0.003910	0.029501
02593	9751071	-4.946847	-1.442838	10.666711	0.281291	-4.988714	0.878046	-0.012529	-0.003630	0.026588
02594	9751096	-4.060192	-0.312545	14.978299	0.136040	-4.883763	0.823679	-0.010378	-0.000798	0.037383
02595	9751121	-5.177602	0.306321	13.052158	-0.094982	-4.862271	0.863911	-0.013143	0.000756	0.032551
02596	9751146	-5.762754	-0.186825	13.754925	-0.073039	-4.857808	0.868982	-0.014615	-0.000480	0.034299
02597	9751171	-6.158974	0.081285	13.439615	-0.020689	-4.978041	0.859801	-0.015606	0.000187	0.033502
02598	9751196	-6.070587	0.400565	14.073452	-0.006422	-5.039108	0.880215	-0.015399	0.000985	0.035087
02599	9751221	-5.746260	1.005043	14.840331	-0.064229	-5.044608	0.887096	-0.014602	0.002499	0.037009
02600	9751246	-5.936234	1.419067	15.162606	-0.168875	-5.034695	0.916964	-0.015083	0.003538	0.037811
02601	9751271	-6.263860	1.524493	15.339547	-0.232042	-5.040616	0.935412	-0.015905	0.003804	0.038248
02602	9751296	-6.543410	1.462567	15.377712	-0.263223	-5.087653	0.971966	-0.016607	0.003649	0.038338
02603	9751321	-6.688056	1.580810	15.417929	-0.270433	-5.133606	0.984519	-0.016972	0.003944	0.038435
02604	9751346	-6.765806	1.857352	15.716442	-0.285155	-5.160162	0.993544	-0.017173	0.004636	0.039179
02605	9751371	-6.795459	2.072860	15.784764	-0.328141	-5.185183	1.011541	-0.017250	0.005177	0.039349
02606	9751396	-6.904567	2.087971	15.804739	-0.378014	-5.198373	1.038355	-0.017524	0.005216	0.039396
02607	9751421	-6.989944	2.001196	15.876060	-0.417283	-5.209522	1.056618	-0.017739	0.005000	0.039573
02608	9751446	-7.052087	1.971061	15.858715	-0.443010	-5.222944	1.074845	-0.017895	0.004926	0.039528
02609	9751471	-7.090625	1.931115	15.873250	-0.458675	-5.237184	1.090763	-0.017992	0.004826	0.039563
02610	9751496	-7.059496	1.846945	15.976849	-0.476166	-5.240596	1.104849	-0.017916	0.004616	0.039823
02611	9751521	-7.274992	1.728182	15.747216	-0.465902	-5.273378	1.116001	-0.018452	0.004318	0.039244
02612	9751546	-7.217162	1.668147	16.358301	-0.441619	-5.254292	1.122835	-0.018317	0.004167	0.040774
02613	9751571	-7.420269	1.690842	16.522574	-0.465724	-5.263195	1.134877	-0.018828	0.004225	0.041181
02614	9751596	-7.697017	1.533243	16.801130	-0.454244	-5.249406	1.147760	-0.019523	0.003829	0.041873
02615	9751621	-7.947784	1.441654	16.999557	-0.438017	-5.269042	1.142601	-0.020154	0.003599	0.042365
02616	9751646	-8.268187	1.365429	17.221211	-0.409092	-5.277329	1.137179	-0.020959	0.003406	0.042914
02617	9751671	-8.461129	1.239664	17.360097	-0.390953	-5.292609	1.127672	-0.021444	0.003090	0.043258
02618	9751696	-8.591408	1.145703	17.501968	-0.369650	-5.289136	1.105982	-0.021771	0.002854	0.043610
02619	9751721	-8.724698	1.063040	17.557287	-0.353422	-5.285402	1.092044	-0.022105	0.002647	0.043747
02620	9751746	-8.879128	0.862870	17.438262	-0.316736	-5.288641	1.073449	-0.022488	0.002144	0.043447
02621	9751771	-9.030801	0.699324	17.420472	-0.277767	-5.292248	1.044187	-0.022867	0.001734	0.043400
02622	9751796	-9.132696	0.575853	17.342918	-0.225681	-5.274537	0.999808	-0.023119	0.001423	0.043205
02623	9751821	-9.181190	0.449275	17.385026	-0.170216	-5.257656	0.963679	-0.023239	0.001105	0.043310
02624	9751846	-9.251304	0.284569	17.309987	-0.115211	-5.238294	0.914101	-0.023412	0.000691	0.043122
02625	9751871	-8.874009	0.106462	16.806978	-0.039456	-5.276913	0.872429	-0.022462	0.000244	0.041870
02626	9751896	-9.906011	-0.343281	16.212254	0.139297	-5.263020	0.848195	-0.025030	-0.000892	0.040366
02627	9751921	-9.346049	-0.178540	18.579602	0.188820	-5.142767	0.780567	-0.023663	-0.000480	0.046297
02628	9751946	-10.007122	0.021411	17.849645	0.179417	-5.132799	0.751034	-0.025303	0.000020	0.044462
02629	9751971	-10.478560	-0.305066	18.418892	0.281634	-5.080707	0.700668	-0.026487	-0.000802	0.045879
02630	9751996	-10.832843	-0.272357	18.511688	0.378334	-5.109651	0.641932	-0.027376	-0.000725	0.046105
02631	9752021	-11.172029	-0.207859	18.903610	0.474613	-5.106641	0.577265	-0.028231	-0.000568	0.047079
02632	9752046	-11.375555	0.045310	19.567069	0.532085	-5.085350	0.515929	-0.028749	0.000062	0.048736
02633	9752071	-11.717553	0.169006	19.946960	0.563105	-5.067826	0.462561	-0.029609	0.000370	0.049681
02634	9752096	-12.258931	0.258816	20.217640	0.599804	-5.051881	0.403833	-0.030966	0.000594	0.050350
02635	9752121	-12.769780	0.279216	20.335884	0.634846	-5.059573	0.340291	-0.032245	0.000644	0.050637
02636	9752146	-13.087255	0.411627	20.224819	0.670470	-5.070228	0.271705	-0.033038	0.000976	0.050354
02637	9752171	-13.113668	0.543652	19.552479	0.688775	-5.115334	0.219125	-0.033096	0.001308	0.048671
02638	9752196	-13.448159	0.840724	19.411995	0.736014	-5.077018	0.150343	-0.033928	0.002051	0.048317
02639	9752221	-13.481517	1.150942	19.597341	0.693868	-5.046149	0.085232	-0.034012	0.002831	0.048782
02640	9752246	-13.697789	1.139667	18.640969	0.683193	-5.003024	0.040412	-0.034535	0.002808	0.046389
02641	9752271	-13.559371	0.897545	17.679328	0.710892	-5.025134	0.001645	-0.034175	0.002205	0.043986
02642	9752296	-13.907871	0.911167	17.212645	0.783893	-4.964414	-0.044602	-0.035036	0.002238	0.042817
02643	9752321	-13.808525	1.146367	17.604845	0.785375	-4.904304	-0.088965	-0.034790	0.002827	0.043802
02644	9752346	-14.172141	1.183178	16.640213	0.798363	-4.831337	-0.111277	-0.035680	0.002922	0.041388
02645	9752371	-14.058248	0.931010	16.102494	0.840535	-4.795131	-0.131709	-0.035386	0.002291	0.040047
02646	9752396	-14.684418	0.926724	15.417360	0.937006	-4.756626	-0.142210	-0.036939	0.002278	0.038327
02647	9752421	-16.211064	1.383802	14.370434	0.937911	-4.622130	-0.160342	-0.040734	0.003426	0.035695
02648	9752446	-16.481264	4.555608	9.199021	0.639653	-4.330526	-0.162027	-0.041325	0.011379	0.022783
02649	9752471	-13.998765	0.372181	10.079320	0.369425	-4.188539	-0.330079	-0.035128	0.000933	0.025015
02650	9752496	-14.948020	0.727126	5.096963	0.745748	-3.928344	-0.260345	-0.037431	0.001818	0.012560
02651	9752521	-13.384023	-0.765399	10.326884	0.739208	-3.845078	-0.138212	-0.033584	-0.001931	0.025654
02652	9752546	-15.484563	0.492968	10.827387	0.916300	-3.863628	-0.179964	-0.038841	0.001210	0.026882
02653	9752571	-16.070350	2.045254	13.761654	0.876320	-3.777076	-0.070548	-0.040337	0.005079	0.034220
02654	9752596	-17.084983	2.025810	13.263224	0.840755	-3.759335	0.000337	-0.042868	0.005030	0.032962
02655	9752621	-18.056043	1.680099	13.084410	0.922934	-3.752871	0.017929	-0.045293	0.004162	0.032504
02656	9752646	-18.266925	1.537493	13.023209	0.978334	-3.775816	0.058891	-0.045821	0.003801	0.032347
02657	9752671	-18.158263	1.420591	13.329523	1.051551	-3.768861	0.114097	-0.045552	0.003501	0.033114
02658	9752696	-18.154902	1.594855	13.826879	1.104142	-3.737575	0.163857	-0.045549	0.003930	0.034360
02659	9752721	-18.465485	2.035262	14.409223	1.165253	-3.701479	0.222718	-0.046331	0.005023	0.035816
02660	9752746	-19.331769	2.525775	15.002678	1.159090	-3.715318	0.278993	-0.048505	0.006243	0.037291
02661	9752771	-20.122962	2.897100	15.262847	1.214983	-3.730937	0.354360	-0.050488	0.007163	0.037933
02662	9752796	-20.814998	3.474764	15.329573	1.190690	-3.790470	0.438863	-0.052223	0.008601	0.038090
02663	9752821	-21.572055	4.071925	14.162344	1.139647	-3.843528	0.497926	-0.054106	0.010096	0.035161
