PacketCounter	SampleTimeFine	Acc_X	Acc_Y	Acc_Z	Gyr_X	Gyr_Y	Gyr_Z	Latitude	Longitude	Altitude
09146	14737651	-2.697450	0.093335	9.468620	-0.003552	-0.008516	0.003615	39.978645495	116.338927956	46.132955
09147	14737676	-2.685000	0.111296	9.458040	-0.003684	-0.008345	0.010185	39.978645496	116.338927954	46.132869
09148	14737701	-2.662898	0.111363	9.439425	-0.004338	-0.008386	0.007617	39.978645496	116.338927953	46.132784
09149	14737726	-2.666961	0.129278	9.424852	0.001073	-0.008646	0.003901	39.978643426	116.338924012	46.133511
09150	14737751	-2.658778	0.096243	9.428734	0.000213	-0.009046	0.006214	39.978643425	116.338924012	46.133421
09151	14737776	-2.649094	0.119609	9.439463	-0.001009	-0.010918	0.007270	39.978643424	116.338924013	46.133332
09152	14737801	-2.643547	0.130606	9.435513	0.001596	-0.009722	0.003469	39.978643424	116.338924014	46.133242
09153	14737826	-2.669782	0.129262	9.434155	-0.003886	-0.007969	0.002110	39.978643423	116.338924015	46.133246
09154	14737851	-2.678090	0.125033	9.458090	-0.003888	-0.009149	-0.000392	39.978643422	116.338924015	46.133156
09155	14737876	-2.686400	0.104390	9.468664	-0.002101	-0.010952	0.005133	39.978643421	116.338924016	46.133067
09156	14737901	-2.691924	0.101597	9.467313	0.000672	-0.015159	0.003336	39.978643420	116.338924017	46.132978
09157	14737926	-2.673994	0.125026	9.462075	-0.001070	-0.015683	0.005393	39.978643420	116.338924017	46.132889
09158	14737951	-2.624245	0.112762	9.424826	-0.002566	-0.015031	0.002441	39.978643419	116.338924018	46.132800
09159	14737976	-2.644971	0.074263	9.411371	-0.005326	-0.014395	0.006737	39.978643418	116.338924019	46.132711
09160	14738001	-2.613206	0.099103	9.396832	-0.004479	-0.014076	0.002865	39.978643417	116.338924020	46.132622
09161	14738026	-2.599407	0.107314	9.404862	-0.002156	-0.011051	0.006640	39.978643416	116.338924020	46.133310
09162	14738051	-2.592583	0.098994	9.426113	-0.003034	-0.013514	0.002564	39.978643415	116.338924021	46.133220
09163	14738076	-2.600885	0.097579	9.434084	-0.002383	-0.008515	-0.000377	39.978643415	116.338924022	46.133131
09164	14738101	-2.615972	0.126545	9.423532	-0.003019	-0.009489	-0.002383	39.978643414	116.338924023	46.133042
09165	14738126	-2.633930	0.122387	9.426160	-0.007324	-0.011009	0.001211	39.978643413	116.338924023	46.132952
09166	14738151	-2.622801	0.154134	9.408975	-0.010492	-0.008649	-0.001691	39.978643412	116.338924024	46.132863
09167	14738176	-2.622730	0.151468	9.378366	-0.002821	-0.012158	0.001062	39.978643411	116.338924025	46.132773
09168	14738201	-2.661407	0.108724	9.396836	-0.017394	-0.009173	-0.003248	39.978643411	116.338924025	46.132683
09169	14738226	-2.657436	0.096155	9.459325	-0.010881	-0.011215	-0.000380	39.978643410	116.338924026	46.129318
09170	14738251	-2.709996	0.088979	9.527139	0.006290	-0.012065	-0.000687	39.978643409	116.338924027	46.129226
09171	14738276	-2.663077	0.112432	9.508608	-0.010760	-0.011507	-0.002757	39.978643408	116.338924028	46.129134
09172	14738301	-2.625731	0.074152	9.441984	-0.022750	-0.015847	0.001159	39.978643407	116.338924028	46.129043
09173	14738326	-2.664361	0.006880	9.403151	-0.016186	-0.012366	-0.001299	39.978643406	116.338924029	46.128950
09174	14738351	-2.665649	0.055045	9.405969	-0.003242	-0.011837	-0.002949	39.978643406	116.338924030	46.128858
09175	14738376	-2.675273	0.118243	9.435447	-0.004941	-0.020058	-0.004083	39.978643405	116.338924031	46.128766
09176	14738401	-2.665606	0.184174	9.462281	-0.014296	-0.017552	-0.006098	39.978643404	116.338924031	46.128675
09177	14738426	-2.591066	0.170626	9.415719	-0.018251	-0.020017	-0.006871	39.978643403	116.338924032	46.133497
09178	14738451	-2.495981	0.130762	9.389024	-0.021827	-0.017716	0.002173	39.978643402	116.338924033	46.133409
09179	14738476	-2.554297	-0.080030	9.440185	-0.033477	-0.021948	0.021477	39.978643401	116.338924034	46.133320
09180	14738501	-2.675466	0.035539	9.469775	-0.033736	-0.023682	0.023849	39.978643401	116.338924034	46.133231
09181	14738526	-2.695966	0.104464	9.432727	-0.038053	-0.024949	0.027259	39.978643400	116.338924035	46.133144
09182	14738551	-2.676578	0.206227	9.461020	-0.044489	-0.026542	0.025709	39.978643399	116.338924036	46.133055
09183	14738576	-2.701280	0.195468	9.402419	-0.036831	-0.029331	0.013694	39.978643398	116.338924037	46.132967
09184	14738601	-2.709452	0.257342	9.410616	-0.034453	-0.023828	0.006637	39.978643397	116.338924037	46.132878
09185	14738626	-2.737127	0.264120	9.443881	-0.029632	-0.028971	-0.002396	39.978643396	116.338924038	46.134251
09186	14738651	-2.721976	0.247599	9.446495	-0.042216	-0.031082	-0.005619	39.978643396	116.338924039	46.134164
09187	14738676	-2.721970	0.257225	9.449185	-0.036864	-0.031997	-0.003135	39.978643395	116.338924040	46.134077
09188	14738701	-2.679354	0.206247	9.454354	-0.036439	-0.036985	-0.007445	39.978643394	116.338924041	46.133990
09189	14738726	-2.675284	0.175943	9.464905	-0.039834	-0.032176	-0.002970	39.978643393	116.338924041	46.133904
09190	14738751	-2.678238	0.084979	9.493883	-0.035268	-0.034827	-0.006498	39.978643392	116.338924042	46.133817
09191	14738776	-2.678407	0.000945	9.513565	-0.033413	-0.038046	-0.010364	39.978643391	116.338924043	46.133732
09192	14738801	-2.659172	-0.025223	9.514816	-0.027996	-0.033082	-0.003253	39.978643391	116.338924044	46.133646
09193	14738826	-2.635637	-0.025137	9.489559	-0.031964	-0.032441	0.000723	39.978643390	116.338924045	46.136382
09194	14738851	-2.664545	-0.000264	9.476316	-0.031000	-0.033942	0.005861	39.978643389	116.338924046	46.136299
09195	14738876	-2.638289	0.016276	9.464401	-0.031170	-0.034031	0.008112	39.978643388	116.338924046	46.136217
09196	14738901	-2.599557	0.050825	9.419293	-0.022483	-0.032745	0.006242	39.978643387	116.338924047	46.136135
09197	14738926	-2.537271	0.114381	9.354351	-0.027062	-0.026245	0.001888	39.978643386	116.338924048	46.136050
09198	14738951	-2.502687	0.150299	9.322562	-0.028855	-0.027455	0.004630	39.978643386	116.338924049	46.135967
09199	14738976	-2.487543	0.151598	9.334536	-0.030127	-0.023744	0.003742	39.978643385	116.338924050	46.135882
09200	14739001	-2.487649	0.118510	9.359717	-0.025302	-0.019784	-0.001107	39.978643384	116.338924050	46.135797
09201	14739026	-2.518120	0.075670	9.399469	-0.023279	-0.013007	-0.003348	39.978643383	116.338924051	46.135765
09202	14739051	-2.525128	0.046650	9.429970	-0.028034	-0.007993	-0.002013	39.978643382	116.338924052	46.135679
09203	14739076	-2.556824	0.076904	9.439366	-0.027907	-0.008138	-0.002705	39.978643381	116.338924053	46.135592
09204	14739101	-2.584393	0.072829	9.434008	-0.025314	-0.006498	0.001255	39.978643380	116.338924054	46.135505
09205	14739126	-2.657421	0.078306	9.444639	-0.022089	-0.001931	-0.004792	39.978643379	116.338924054	46.135419
09206	14739151	-2.663087	0.067128	9.489834	-0.019729	-0.003113	0.000918	39.978643379	116.338924055	46.135333
09207	14739176	-2.681062	0.058788	9.513757	-0.021863	-0.007713	0.000967	39.978643378	116.338924056	46.135247
09208	14739201	-2.710068	0.050433	9.528335	-0.022955	-0.009044	-0.003235	39.978643377	116.338924057	46.135162
09209	14739226	-2.677017	0.017439	9.520260	-0.021994	-0.011556	0.001346	39.978643376	116.338924058	46.131697
09210	14739251	-2.660466	0.033966	9.518995	-0.021817	-0.012970	0.003664	39.978643375	116.338924058	46.131610
09211	14739276	-2.663098	0.034121	9.481753	-0.023915	-0.016251	0.003776	39.978643374	116.338924059	46.131524
09212	14739301	-2.647945	0.027261	9.463096	-0.014482	-0.008807	0.004281	39.978643373	116.338924060	46.131437
09213	14739326	-2.609135	0.089344	9.434059	-0.014006	-0.011460	0.003915	39.978643373	116.338924061	46.131350
09214	14739351	-2.616098	0.086507	9.451338	-0.014329	-0.012913	-0.000218	39.978643372	116.338924062	46.131264
09215	14739376	-2.607785	0.116810	9.446125	-0.013103	-0.011703	0.004548	39.978643371	116.338924062	46.131177
09216	14739401	-2.621557	0.114095	9.434132	-0.013638	-0.013457	0.005420	39.978643370	116.338924063	46.131091
09217	14739426	-2.631190	0.103081	9.439414	-0.016578	-0.009851	0.001639	39.978643369	116.338924064	46.131137
09218	14739451	-2.614582	0.126527	9.419542	-0.017972	-0.011599	-0.001374	39.978643368	116.338924065	46.131050
09219	14739476	-2.605013	0.107235	9.439442	-0.015876	-0.013310	0.002648	39.978643367	116.338924066	46.130964
09220	14739501	-2.605003	0.111338	9.436787	-0.018802	-0.014180	-0.000627	39.978643366	116.338924067	46.130877
09221	14739526	-2.631236	0.092050	9.439367	-0.017738	-0.015576	0.002699	39.978643366	116.338924067	46.130791
09222	14739551	-2.625801	0.063096	9.459232	-0.016490	-0.015536	-0.006489	39.978643365	116.338924068	46.130704
09223	14739576	-2.621482	0.134762	9.427538	-0.019038	-0.014265	0.001687	39.978643364	116.338924069	46.130618
09224	14739601	-2.642290	0.101624	9.455370	-0.025789	-0.011230	0.001566	39.978643363	116.338924070	46.130531
09225	14739626	-2.685204	0.040909	9.503048	-0.021271	-0.017330	-0.000271	39.978643362	116.338924071	46.131283
09226	14739651	-2.667324	0.029841	9.512338	-0.019583	-0.022189	-0.004509	39.978643361	116.338924072	46.131198
09227	14739676	-2.652179	0.040860	9.515035	-0.024402	-0.021113	0.003275	39.978643360	116.338924072	46.131113
09228	14739701	-2.629940	0.050695	9.456536	-0.025469	-0.020292	-0.000551	39.978643359	116.338924073	46.131029
09229	14739726	-2.623002	0.068635	9.441968	-0.027761	-0.021830	0.001749	39.978643358	116.338924074	46.130943
09230	14739751	-2.618829	0.079660	9.438019	-0.024547	-0.020874	0.002462	39.978643358	116.338924075	46.130859
09233	14739776	-2.633996	0.083760	9.451333	-0.023277	-0.025515	0.008421	39.978643357	116.338924076	46.130775
09234	14739801	-2.625747	0.090687	9.446022	-0.028019	-0.027065	0.005817	39.978643356	116.338924077	46.130690
09235	14739826	-2.649174	0.100273	9.455355	-0.030339	-0.026368	0.002171	39.978643453	116.338923872	46.125406
09236	14739851	-2.642254	0.125030	9.454115	-0.026861	-0.026381	0.001571	39.978643452	116.338923873	46.125313
09237	14739876	-2.682115	0.170535	9.438270	-0.031459	-0.028199	0.000595	39.978643451	116.338923874	46.125220
09238	14739901	-2.681999	0.264066	9.453216	-0.034341	-0.031272	0.005206	39.978643451	116.338923874	46.125127
09239	14739926	-2.701531	0.201990	9.498233	-0.032274	-0.031190	0.002719	39.978643450	116.338923875	46.125035
09240	14739951	-2.707186	0.155047	9.535339	-0.022300	-0.032873	-0.003208	39.978643449	116.338923876	46.124943
09241	14739976	-2.670206	0.018686	9.548219	-0.019337	-0.030863	-0.007689	39.978643448	116.338923877	46.124852
09242	14740001	-2.645585	-0.149161	9.530381	-0.029552	-0.029780	-0.000076	39.978643447	116.338923877	46.124761
09243	14740026	-2.622165	-0.195806	9.494313	-0.021012	-0.029613	0.007313	39.978643446	116.338923878	46.128852
09244	14740051	-2.652291	-0.133781	9.471897	-0.011122	-0.025021	0.011390	39.978643446	116.338923879	46.128765
09245	14740076	-2.645337	-0.041644	9.496144	-0.000775	-0.028241	0.015798	39.978643445	116.338923879	46.128678
09246	14740101	-2.648009	0.050510	9.505757	-0.007069	-0.029421	0.016557	39.978643444	116.338923880	46.128592
09247	14740126	-2.632740	0.115153	9.520633	-0.001004	-0.031142	0.011796	39.978643443	116.338923881	46.128506
09248	14740151	-2.616113	0.146927	9.488801	-0.006722	-0.033529	0.011998	39.978643442	116.338923881	46.128421
09249	14740176	-2.576059	0.111332	9.434156	-0.011761	-0.032221	0.010645	39.978643441	116.338923882	46.128335
09250	14740201	-2.552621	0.066058	9.398083	-0.016324	-0.028951	0.009231	39.978643441	116.338923883	46.128249
09251	14740226	-2.562372	0.015049	9.419203	-0.012305	-0.031517	0.015022	39.978643440	116.338923883	46.127598
09252	14740251	-2.563755	0.010890	9.423186	-0.003117	-0.028497	0.015278	39.978643439	116.338923884	46.127511
09253	14740276	-2.539058	-0.013953	9.444404	-0.005990	-0.028211	0.013006	39.978643438	116.338923885	46.127424
09254	14740301	-2.569354	0.039626	9.463185	-0.000964	-0.022101	0.012971	39.978643437	116.338923885	46.127337
09255	14740326	-2.568028	0.050542	9.492495	-0.006956	-0.022772	0.013679	39.978643436	116.338923886	46.127251
09256	14740351	-2.576073	0.101666	9.440777	-0.000155	-0.021407	0.013041	39.978643435	116.338923887	46.127164
09257	14740376	-2.584286	0.136128	9.430231	-0.007050	-0.023945	0.015432	39.978643435	116.338923888	46.127077
09258	14740401	-2.617339	0.111442	9.412840	-0.006747	-0.024363	0.013116	39.978643434	116.338923888	46.126990
09259	14740426	-2.629845	0.092066	9.440710	-0.004479	-0.020207	0.012757	39.978643433	116.338923889	46.129054
09260	14740451	-2.631338	0.082258	9.479256	-0.009000	-0.025427	0.013538	39.978643432	116.338923890	46.128968
09261	14740476	-2.605099	0.107057	9.472702	-0.008619	-0.026530	0.011541	39.978643431	116.338923890	46.128883
09262	14740501	-2.605036	0.145598	9.471504	-0.013466	-0.026156	0.014757	39.978643430	116.338923891	46.128798
09263	14740526	-2.580166	0.149861	9.440923	-0.014342	-0.027041	0.014563	39.978643430	116.338923892	46.128712
09264	14740551	-2.574663	0.099003	9.422141	-0.018203	-0.023247	0.014716	39.978643429	116.338923893	46.128626
09265	14740576	-2.566366	0.093570	9.406156	-0.015859	-0.023760	0.014360	39.978643428	116.338923893	46.128541
09266	14740601	-2.549761	0.105970	9.392910	-0.011747	-0.021732	0.011265	39.978643427	116.338923894	46.128455
09267	14740626	-2.516605	0.130833	9.365047	-0.018008	-0.024134	0.014347	39.978643426	116.338923895	46.127796
09268	14740651	-2.473842	0.137724	9.365106	-0.028253	-0.017700	0.013012	39.978643425	116.338923895	46.127708
09269	14740676	-2.472413	0.137808	9.339834	-0.029032	-0.021785	0.010069	39.978643424	116.338923896	46.127620
09270	14740701	-2.464192	0.096509	9.341028	-0.032976	-0.016861	0.010033	39.978643423	116.338923897	46.127530
09271	14740726	-2.412787	0.249612	9.257736	-0.036792	-0.010748	0.012757	39.978643423	116.338923898	46.127439
09272	14740751	-2.319099	0.158894	9.224237	-0.047401	-0.007471	0.007418	39.978643422	116.338923899	46.127346
09273	14740776	-2.392109	0.154891	9.202875	-0.049528	-0.007021	0.004016	39.978643421	116.338923899	46.127252
09274	14740801	-2.355014	0.109324	9.229378	-0.040889	0.004545	0.001509	39.978643420	116.338923900	46.127156
09275	14740826	-2.395131	0.113248	9.287906	-0.053573	0.006314	0.000469	39.978643419	116.338923901	46.123791
09276	14740851	-2.419966	0.172228	9.342646	-0.052828	0.009789	0.004977	39.978643418	116.338923902	46.123690
09277	14740876	-2.373033	0.234159	9.336211	-0.053097	0.014675	-0.001347	39.978643417	116.338923902	46.123588
09278	14740901	-2.319146	0.239850	9.284365	-0.064005	0.023068	-0.002688	39.978643416	116.338923903	46.123485
09279	14740926	-2.453011	0.135220	9.302576	-0.076270	0.034732	-0.007930	39.978643415	116.338923904	46.123380
09280	14740951	-2.679250	0.093734	9.358199	-0.069934	0.035891	-0.005080	39.978643414	116.338923905	46.123275
09281	14740976	-2.661484	0.077058	9.404711	-0.076684	0.027765	-0.004624	39.978643413	116.338923906	46.123169
09282	14741001	-2.523659	-0.020516	9.360576	-0.079040	0.025876	-0.009075	39.978643412	116.338923907	46.123063
09283	14741026	-2.504157	0.069181	9.311632	-0.069267	0.025414	-0.013629	39.978643411	116.338923907	46.123831
09284	14741051	-2.496096	0.059147	9.398102	-0.061119	0.032145	-0.002497	39.978643410	116.338923908	46.123724
09285	14741076	-2.639862	-0.015631	9.524175	-0.064652	0.027709	-0.011472	39.978643409	116.338923909	46.123617
09286	14741101	-2.586244	-0.069460	9.554640	-0.065397	0.030346	-0.004411	39.978643408	116.338923910	46.123511
09287	14741126	-2.552787	-0.107279	9.366911	-0.076897	0.032383	-0.004311	39.978643407	116.338923911	46.123404
09288	14741151	-2.460510	-0.191152	9.356053	-0.064227	0.035286	-0.003710	39.978643406	116.338923912	46.123297
09289	14741176	-2.518227	-0.136016	9.318937	-0.054336	0.034453	0.004563	39.978643405	116.338923912	46.123189
09290	14741201	-2.599635	0.008099	9.441780	-0.052004	0.033489	-0.000362	39.978643404	116.338923913	46.123081
09291	14741226	-2.656271	0.086194	9.531152	-0.053082	0.028753	0.003758	39.978643403	116.338923914	46.127277
09292	14741251	-2.623239	0.083391	9.551110	-0.056706	0.030167	-0.003152	39.978643402	116.338923915	46.127173
09293	14741276	-2.539152	0.016102	9.499045	-0.061721	0.031662	-0.001189	39.978643401	116.338923916	46.127069
09294	14741301	-2.497643	-0.019328	9.413811	-0.061616	0.036921	0.000001	39.978643400	116.338923916	46.126965
09295	14741326	-2.530637	-0.022012	9.392494	-0.057514	0.037295	0.000532	39.978643399	116.338923917	46.126859
09296	14741351	-2.611887	0.022120	9.377954	-0.053027	0.036030	-0.002816	39.978643398	116.338923918	46.126754
09297	14741376	-2.593002	-0.034850	9.516157	-0.044937	0.033894	-0.002125	39.978643397	116.338923919	46.126650
09298	14741401	-2.536585	-0.095473	9.523972	-0.037192	0.033753	-0.006439	39.978643396	116.338923920	46.126545
09299	14741426	-2.503311	-0.085532	9.440196	-0.040664	0.032875	-0.006466	39.978643395	116.338923920	46.130705
09300	14741451	-2.666119	-0.039026	9.533394	-0.041105	0.045769	0.003150	39.978643394	116.338923921	46.130604
09301	14741476	-2.888248	-0.016046	9.659753	-0.044768	0.041775	0.002551	39.978643393	116.338923922	46.130504
09302	14741501	-2.891052	0.014132	9.678476	-0.036550	0.023641	0.002003	39.978643392	116.338923923	46.130406
09303	14741526	-2.722629	-0.000613	9.562767	-0.042263	0.019144	-0.000283	39.978643391	116.338923924	46.130310
09304	14741551	-2.635627	-0.008595	9.496269	-0.042257	0.026032	0.000405	39.978643390	116.338923924	46.130214
09305	14741576	-2.661794	-0.020928	9.470927	-0.037013	0.023133	0.000760	39.978643389	116.338923925	46.130119
09306	14741601	-2.679774	-0.001816	9.516222	-0.039375	0.021239	0.008690	39.978643388	116.338923926	46.130024
09307	14741626	-2.671474	-0.003083	9.497589	-0.035343	0.019567	0.011101	39.978643387	116.338923927	46.129320
09308	14741651	-2.631443	0.016164	9.483035	-0.028370	0.016072	0.005968	39.978643387	116.338923927	46.129225
09309	14741676	-2.584499	0.013540	9.455112	-0.035894	0.015663	-0.000350	39.978643386	116.338923928	46.129130
09310	14741701	-2.594237	0.016218	9.479053	-0.034645	0.019991	-0.002217	39.978643385	116.338923929	46.129035
09311	14741726	-2.630093	-0.003133	9.490966	-0.033672	0.018263	0.004423	39.978643384	116.338923930	46.128941
09312	14741751	-2.661874	-0.003158	9.516228	-0.035168	0.014187	0.006101	39.978643383	116.338923931	46.128847
09313	14741776	-2.607949	0.014893	9.459092	-0.037706	0.016282	0.002515	39.978643382	116.338923931	46.128753
09314	14741801	-2.592567	0.061965	9.390063	-0.035794	0.013500	0.006351	39.978643381	116.338923932	46.128659
09315	14741826	-2.570522	0.053676	9.396710	-0.037853	0.018793	0.005518	39.978643380	116.338923933	46.128667
09316	14741851	-2.600918	0.037105	9.413933	-0.037339	0.015548	-0.000046	39.978643379	116.338923934	46.128573
09317	14741876	-2.605068	0.052162	9.431277	-0.037275	0.017695	0.003833	39.978643378	116.338923935	46.128478
09318	14741901	-2.516868	0.082397	9.447396	-0.036110	0.014301	0.000907	39.978643377	116.338923935	46.128383
09319	14741926	-2.640854	0.068772	9.414009	-0.043973	0.025176	-0.002235	39.978643376	116.338923936	46.128288
09320	14741951	-2.601421	-0.118860	9.529182	-0.039482	0.012106	-0.006381	39.978643375	116.338923937	46.128193
09321	14741976	-2.619137	-0.092442	9.458731	-0.035942	0.017324	-0.003356	39.978643374	116.338923938	46.128099
09322	14742001	-2.598434	-0.055331	9.465520	-0.032336	0.018103	-0.001638	39.978643373	116.338923939	46.128004
09323	14742026	-2.598295	0.008042	9.452432	-0.037843	0.016901	0.009710	39.978643372	116.338923940	46.128025
09324	14742051	-2.591324	0.048043	9.436589	-0.044963	0.017701	0.007775	39.978643371	116.338923940	46.127930
09325	14742076	-2.627186	0.056216	9.456553	-0.041376	0.022040	-0.000711	39.978643370	116.338923941	46.127836
09326	14742101	-2.599667	0.045166	9.463192	-0.038178	0.017010	0.000823	39.978643369	116.338923942	46.127742
09327	14742126	-2.544530	-0.024938	9.437717	-0.037690	0.014305	0.001206	39.978643368	116.338923943	46.127647
09328	14742151	-2.500435	-0.056495	9.407031	-0.045200	0.019981	-0.000232	39.978643367	116.338923944	46.127552
09329	14742176	-2.523675	-0.013640	9.359257	-0.046332	0.024696	0.002882	39.978643366	116.338923945	46.127457
09330	14742201	-2.552727	0.031537	9.428574	-0.036852	0.028045	-0.000174	39.978643365	116.338923945	46.127361
09332	14742226	-2.522622	-0.058109	9.465559	-0.034297	0.027134	-0.005662	39.978643364	116.338923946	46.127394
09334	14742251	-2.584473	-0.013810	9.408439	-0.033991	0.032721	-0.003412	39.978643363	116.338923947	46.127298
09335	14742276	-2.746069	-0.019806	9.549378	-0.036828	0.038387	-0.000192	39.978643362	116.338923948	46.127202
09336	14742301	-2.776457	0.033600	9.617394	-0.035138	0.026396	-0.003551	39.978643361	116.338923949	46.127108
09337	14742326	-2.711408	0.039507	9.507017	-0.043300	0.023948	-0.007802	39.978643466	116.338923495	46.121788
09338	14742351	-2.659096	-0.037474	9.480180	-0.045279	0.022282	-0.005622	39.978643465	116.338923495	46.121686
09339	14742376	-2.652176	-0.048397	9.458861	-0.040404	0.023329	-0.002833	39.978643464	116.338923496	46.121584
09340	14742401	-2.636881	-0.029008	9.426999	-0.032322	0.021327	-0.001390	39.978643463	116.338923496	46.121482
09341	14742426	-2.627303	-0.029138	9.457611	-0.035226	0.016305	0.004350	39.978643462	116.338923496	46.121558
09342	14742451	-2.606520	-0.004233	9.425767	-0.034373	0.015919	-0.000398	39.978643461	116.338923497	46.121456
09343	14742476	-2.595504	-0.024879	9.412409	-0.030991	0.015859	-0.003439	39.978643460	116.338923497	46.121354
09344	14742501	-2.612150	-0.019501	9.460309	-0.035068	0.020695	-0.005603	39.978643459	116.338923498	46.121252
09345	14742526	-2.599668	-0.019398	9.424388	-0.031306	0.020167	-0.002755	39.978643458	116.338923498	46.121150
09346	14742551	-2.572067	-0.026212	9.409744	-0.037964	0.019890	-0.004932	39.978643457	116.338923498	46.121047
09347	14742576	-2.614737	-0.021984	9.388454	-0.036493	0.022924	-0.004363	39.978643456	116.338923499	46.120944
09348	14742601	-2.654879	-0.019507	9.464284	-0.030471	0.019003	-0.004190	39.978643455	116.338923499	46.120842
09349	14742626	-2.688054	-0.019635	9.498849	-0.032216	0.016902	-0.005454	39.978643454	116.338923500	46.119605
09350	14742651	-2.646691	-0.026506	9.490867	-0.035590	0.017129	-0.007419	39.978643453	116.338923500	46.119502
09351	14742676	-2.606709	-0.045730	9.477525	-0.041731	0.012244	-0.009651	39.978643452	116.338923500	46.119399
09352	14742701	-2.606478	-0.004168	9.405808	-0.041714	0.014964	-0.009277	39.978643451	116.338923501	46.119296
09353	14742726	-2.665922	-0.036001	9.458898	-0.040260	0.014348	-0.003827	39.978643450	116.338923501	46.119193
09354	14742751	-2.695096	-0.103660	9.511876	-0.036363	0.012664	-0.010237	39.978643449	116.338923502	46.119091
09355	14742776	-2.627363	-0.052558	9.462849	-0.033872	0.007302	-0.010212	39.978643448	116.338923502	46.118988
09356	14742801	-2.563875	-0.071649	9.414923	-0.041071	0.008062	-0.006825	39.978643447	116.338923502	46.118886
09357	14742826	-2.533431	-0.046797	9.391089	-0.038050	0.008231	-0.007989	39.978643446	116.338923503	46.119668
09358	14742851	-2.496150	-0.056294	9.353816	-0.039184	0.016607	-0.005187	39.978643445	116.338923503	46.119565
09359	14742876	-2.538793	-0.053433	9.323200	-0.036941	0.015287	-0.004484	39.978643444	116.338923504	46.119462
09360	14742901	-2.685171	-0.057886	9.425544	-0.033805	0.020756	-0.005157	39.978643443	116.338923504	46.119358
09361	14742926	-2.712957	-0.029444	9.546714	-0.033382	0.012338	-0.010717	39.978643442	116.338923504	46.119257
09362	14742951	-2.639766	-0.008642	9.490934	-0.038351	0.009678	-0.011814	39.978643441	116.338923505	46.119154
09363	14742976	-2.598412	-0.011316	9.477645	-0.047536	0.012667	-0.007319	39.978643440	116.338923505	46.119052
09364	14743001	-2.541542	0.042734	9.372733	-0.043328	0.012688	-0.009848	39.978643439	116.338923506	46.118949
09365	14743026	-2.598125	-0.031508	9.356495	-0.047542	0.015356	-0.008950	39.978643438	116.338923506	46.119732
09366	14743051	-2.671119	-0.012191	9.351196	-0.037819	0.013466	-0.007498	39.978643437	116.338923507	46.119628
09367	14743076	-2.630288	-0.154447	9.471834	-0.032976	0.014311	-0.009774	39.978643436	116.338923507	46.119525
09368	14743101	-2.606622	-0.057963	9.437571	-0.032127	0.005424	-0.009194	39.978643435	116.338923507	46.119421
09369	14743126	-2.551504	-0.066253	9.432250	-0.043598	0.015907	-0.005849	39.978643434	116.338923508	46.119318
09370	14743151	-2.609430	-0.088305	9.449455	-0.045413	0.017582	-0.007620	39.978643433	116.338923508	46.119214
09371	14743176	-2.609505	-0.104818	9.449382	-0.042064	0.019848	-0.003843	39.978643432	116.338923509	46.119111
09372	14743201	-2.599665	-0.082620	9.400239	-0.036436	0.014493	-0.006546	39.978643431	116.338923509	46.119007
09373	14743226	-2.605174	-0.108660	9.376193	-0.042096	0.012615	-0.006151	39.978643430	116.338923509	46.117784
09374	14743251	-2.631456	-0.079884	9.422838	-0.033507	0.010210	-0.005707	39.978643429	116.338923510	46.117679
09375	14743276	-2.645193	-0.062007	9.416238	-0.028972	0.014603	-0.006865	39.978643428	116.338923510	46.117573
09376	14743301	-2.636990	-0.052514	9.452204	-0.034334	0.012425	-0.009595	39.978643427	116.338923511	46.117468
09377	14743326	-2.594286	-0.106105	9.428091	-0.028756	0.016828	-0.013931	39.978643426	116.338923511	46.117362
09378	14743351	-2.620135	0.034486	9.381983	-0.031835	0.021170	-0.003013	39.978643425	116.338923511	46.117257
09379	14743376	-2.618016	-0.193118	9.510299	-0.030683	0.015308	-0.006689	39.978643424	116.338923512	46.117151
09380	14743401	-2.639871	-0.103523	9.469333	-0.028335	0.016178	-0.010991	39.978643423	116.338923512	46.117045
09381	14743426	-2.519658	-0.108618	9.348293	-0.034635	0.018610	-0.002089	39.978643422	116.338923513	46.118536
09382	14743451	-2.504148	-0.050396	9.252706	-0.048302	0.022882	-0.000510	39.978643421	116.338923513	46.118431
09383	14743476	-2.465386	-0.128426	9.130060	-0.050777	0.024587	0.003663	39.978643420	116.338923513	46.118324
09384	14743501	-2.419747	-0.122714	9.079549	-0.044918	0.026305	0.004835	39.978643419	116.338923514	46.118214
09385	14743526	-2.422555	-0.118662	9.099513	-0.045732	0.029452	0.004266	39.978643418	116.338923514	46.118100
09386	14743551	-2.457265	-0.099814	9.208665	-0.044547	0.031874	0.005710	39.978643417	116.338923514	46.117986
09387	14743576	-2.436785	-0.074043	9.305883	-0.051221	0.031559	0.001216	39.978643416	116.338923515	46.117870
09388	14743601	-2.360969	-0.056199	9.308653	-0.062090	0.033219	0.005138	39.978643415	116.338923515	46.117753
09389	14743626	-2.277984	-0.051633	9.191627	-0.077084	0.048372	0.000194	39.978643414	116.338923516	46.118552
09390	14743651	-2.385166	0.054680	9.120062	-0.087249	0.060894	0.005165	39.978643412	116.338923516	46.118432
09391	14743676	-2.511008	-0.068182	9.226040	-0.085716	0.064768	-0.000466	39.978643411	116.338923516	46.118310
09392	14743701	-2.582647	0.055472	9.278277	-0.086243	0.067449	-0.006668	39.978643410	116.338923517	46.118186
09393	14743726	-2.533099	0.053974	9.308913	-0.100595	0.067289	-0.006153	39.978643409	116.338923517	46.118064
09394	14743751	-2.489074	0.016745	9.324777	-0.119884	0.064062	-0.004360	39.978643408	116.338923518	46.117939
09395	14743776	-2.497201	0.045872	9.268988	-0.119263	0.074396	-0.021258	39.978643407	116.338923518	46.117813
09396	14743801	-2.567721	0.037237	9.370048	-0.116542	0.079283	-0.027128	39.978643406	116.338923518	46.117686
09397	14743826	-2.569095	0.068864	9.383452	-0.123070	0.079343	-0.036001	39.978643405	116.338923519	46.117804
09398	14743851	-2.668091	0.246388	9.390644	-0.133526	0.082631	-0.032146	39.978643404	116.338923519	46.117676
09399	14743876	-2.714321	0.007670	9.552150	-0.136520	0.074610	-0.036421	39.978643402	116.338923520	46.117548
09400	14743901	-2.798360	0.043504	9.552224	-0.130205	0.071630	-0.036561	39.978643401	116.338923520	46.117421
09401	14743926	-2.728152	-0.039068	9.530695	-0.134790	0.069185	-0.044037	39.978643400	116.338923521	46.117297
09402	14743951	-2.768136	-0.069299	9.533242	-0.132839	0.071371	-0.041148	39.978643399	116.338923521	46.117171
09403	14743976	-2.761490	-0.174086	9.574133	-0.123729	0.068170	-0.047144	39.978643398	116.338923522	46.117047
09404	14744001	-2.816285	-0.056747	9.494653	-0.114213	0.064704	-0.057895	39.978643397	116.338923522	46.116924
09405	14744026	-2.815260	-0.164483	9.582129	-0.115938	0.067130	-0.048460	39.978643396	116.338923523	46.125227
09406	14744051	-2.863815	-0.203367	9.687075	-0.107829	0.061524	-0.058843	39.978643395	116.338923523	46.125113
09407	14744076	-2.808461	-0.209917	9.588626	-0.098740	0.054762	-0.058827	39.978643393	116.338923524	46.125000
09408	14744101	-2.790293	-0.131291	9.543664	-0.100043	0.055017	-0.062715	39.978643392	116.338923524	46.124888
09409	14744126	-2.786333	-0.208437	9.556711	-0.095826	0.049146	-0.054608	39.978643391	116.338923525	46.124776
09410	14744151	-2.755960	-0.189110	9.547476	-0.099726	0.045669	-0.051378	39.978643390	116.338923525	46.124666
09411	14744176	-2.772085	-0.033291	9.470807	-0.093208	0.042331	-0.050323	39.978643389	116.338923526	46.124556
09412	14744201	-2.860748	-0.114979	9.606216	-0.095408	0.043628	-0.040086	39.978643388	116.338923526	46.124448
09413	14744226	-2.895647	-0.268171	9.712137	-0.092609	0.034048	-0.042935	39.978643387	116.338923527	46.123796
09414	14744251	-2.855401	-0.275933	9.583069	-0.082281	0.025159	-0.049412	39.978643386	116.338923527	46.123690
09415	14744276	-2.851296	-0.281472	9.591035	-0.072519	0.025305	-0.047335	39.978643385	116.338923527	46.123586
09416	14744301	-2.860946	-0.258108	9.603063	-0.060381	0.023627	-0.044674	39.978643384	116.338923528	46.123483
09417	14744326	-2.873221	-0.154941	9.615386	-0.058372	0.021753	-0.043279	39.978643383	116.338923528	46.123382
09418	14744351	-2.804365	-0.216882	9.604577	-0.066316	0.014301	-0.032571	39.978643382	116.338923529	46.123282
09419	14744376	-2.780485	-0.076083	9.499936	-0.081722	0.010277	-0.028870	39.978643381	116.338923529	46.123183
09420	14744401	-2.743589	-0.204254	9.550094	-0.079860	0.009857	-0.019594	39.978643380	116.338923530	46.123084
09421	14744426	-2.823509	-0.149278	9.579505	-0.073428	0.010984	-0.027370	39.978643379	116.338923530	46.130703
09422	14744451	-2.706170	-0.140842	9.510416	-0.065795	0.001866	-0.024854	39.978643378	116.338923531	46.130613
09423	14744476	-2.632895	-0.097925	9.449400	-0.074606	0.005959	-0.018542	39.978643377	116.338923531	46.130523
09424	14744501	-2.608005	-0.082646	9.413536	-0.069711	0.010128	-0.021946	39.978643376	116.338923532	46.130433
09425	14744526	-2.630065	-0.075798	9.420200	-0.065170	0.012171	-0.020038	39.978643375	116.338923532	46.130342
09426	14744551	-2.580504	-0.125369	9.424059	-0.071178	0.011805	-0.019895	39.978643373	116.338923533	46.130252
09427	14744576	-2.591479	-0.141787	9.396049	-0.066011	0.012019	-0.021856	39.978643372	116.338923533	46.130161
09428	14744601	-2.573562	-0.126651	9.400109	-0.070284	0.013979	-0.022078	39.978643371	116.338923534	46.130070
09429	14744626	-2.561069	-0.118282	9.373526	-0.071397	0.013971	-0.018708	39.978643370	116.338923534	46.128641
09430	14744651	-2.599717	-0.082632	9.408213	-0.077708	0.015427	-0.014819	39.978643369	116.338923535	46.128548
09431	14744676	-2.646910	-0.206728	9.470313	-0.070065	0.020038	-0.021835	39.978643368	116.338923535	46.128455
09432	14744701	-2.659377	-0.142280	9.539712	-0.062250	0.025189	-0.030662	39.978643367	116.338923536	46.128363
09433	14744726	-2.716987	-0.242166	9.375703	-0.055575	0.009200	-0.027035	39.978643366	116.338923536	46.128271
09436	14744751	-2.756677	-0.218387	9.266637	-0.060195	-0.000709	-0.022933	39.978643365	116.338923537	46.128178
09437	14744776	-2.651134	-0.248064	9.486143	-0.063373	-0.007311	-0.018384	39.978643364	116.338923537	46.128085
09438	14744801	-2.682942	-0.219375	9.535441	-0.063515	-0.002593	-0.019456	39.978643363	116.338923538	46.127992
09439	14744826	-2.669247	-0.227861	9.584660	-0.075056	0.000575	-0.015725	39.978643337	116.338923494	46.123050
09440	14744851	-2.701001	-0.295156	9.557803	-0.078967	-0.005531	-0.018945	39.978643335	116.338923494	46.122952
09441	14744876	-2.717268	-0.405992	9.389777	-0.074852	-0.013357	-0.010087	39.978643334	116.338923495	46.122854
09442	14744901	-2.663295	-0.379576	9.315385	-0.067474	-0.028108	-0.004570	39.978643333	116.338923495	46.122755
09443	14744926	-2.663183	-0.299740	9.318324	-0.051476	-0.043975	-0.000677	39.978643332	116.338923495	46.122653
09444	14744951	-2.598224	-0.105754	9.325621	-0.045766	-0.034255	-0.016777	39.978643331	116.338923496	46.122553
09445	14744976	-2.382607	0.007080	9.696006	-0.040808	0.012340	-0.036541	39.978643330	116.338923496	46.122453
09446	14745001	-2.540372	-0.046177	9.956563	-0.051294	0.045966	-0.030085	39.978643328	116.338923497	46.122355
09447	14745026	-2.819908	-0.383682	9.659902	-0.077198	0.044143	-0.018103	39.978643327	116.338923497	46.124483
09448	14745051	-2.832965	-0.349491	9.379252	-0.076570	0.033645	-0.007080	39.978643326	116.338923498	46.124390
09449	14745076	-2.638442	-0.397261	9.278087	-0.046994	0.038740	-0.014348	39.978643325	116.338923498	46.124297
09450	14745101	-2.635849	-0.321999	9.372790	-0.021729	0.053178	-0.021419	39.978643324	116.338923499	46.124203
09451	14745126	-2.742274	-0.160418	9.604809	-0.006430	0.059444	-0.042894	39.978643322	116.338923499	46.124111
09452	14745151	-2.844296	-0.223583	9.573926	0.003542	0.056922	-0.057088	39.978643321	116.338923499	46.124019
09453	14745176	-2.757309	-0.149247	9.562237	0.019090	0.061342	-0.072166	39.978643320	116.338923500	46.123927
09454	14745201	-2.696622	-0.202716	9.504884	0.032844	0.066294	-0.073436	39.978643319	116.338923500	46.123836
09455	14745226	-2.682866	-0.275574	9.471388	0.037512	0.076336	-0.076662	39.978643318	116.338923501	46.123896
09456	14745251	-2.680122	-0.274292	9.498018	0.040455	0.075410	-0.075136	39.978643317	116.338923501	46.123806
09457	14745276	-2.648451	-0.270195	9.499376	0.034912	0.079511	-0.071676	39.978643315	116.338923502	46.123717
09458	14745301	-2.598889	-0.319769	9.500567	0.018837	0.078189	-0.052966	39.978643314	116.338923502	46.123628
09459	14745326	-2.616583	-0.234213	9.451609	0.009342	0.079475	-0.036335	39.978643313	116.338923502	46.123538
09460	14745351	-2.602711	-0.246475	9.412984	0.005431	0.078005	-0.029920	39.978643312	116.338923503	46.123449
09461	14745376	-2.606744	-0.188608	9.405203	0.001617	0.078233	-0.031829	39.978643311	116.338923503	46.123360
09462	14745401	-2.561060	-0.125172	9.365523	0.000535	0.080056	-0.028645	39.978643309	116.338923504	46.123270
09463	14745426	-2.563810	-0.126483	9.357534	-0.004512	0.080271	-0.019363	39.978643308	116.338923504	46.126091
09464	14745451	-2.583016	-0.120878	9.325602	-0.005108	0.078580	-0.018303	39.978643307	116.338923505	46.126002
09465	14745476	-2.582937	-0.112521	9.301690	-0.007513	0.072519	-0.022633	39.978643306	116.338923505	46.125913
09466	14745501	-2.613405	-0.141549	9.340161	0.000246	0.071220	-0.028081	39.978643305	116.338923505	46.125823
09467	14745526	-2.658864	-0.182754	9.313387	0.006118	0.064868	-0.033973	39.978643303	116.338923506	46.125732
09468	14745551	-2.610693	-0.199330	9.325332	-0.002074	0.061741	-0.029154	39.978643302	116.338923506	46.125641
09469	14745576	-2.585664	-0.145375	9.254996	-0.001602	0.055943	-0.036526	39.978643301	116.338923507	46.125548
09470	14745601	-2.559501	-0.120756	9.296346	0.001691	0.065152	-0.040640	39.978643300	116.338923507	46.125454
09471	14745626	-2.551409	-0.175962	9.334752	0.007908	0.061193	-0.039208	39.978643298	116.338923508	46.122032
09472	14745651	-2.580346	-0.164996	9.340106	-0.006004	0.064626	-0.038885	39.978643297	116.338923508	46.121934
09473	14745676	-2.581771	-0.163641	9.354741	-0.005203	0.066072	-0.039130	39.978643296	116.338923509	46.121835
09474	14745701	-2.601070	-0.178751	9.341367	0.000787	0.067282	-0.045900	39.978643294	116.338923509	46.121736
09475	14745726	-2.627176	-0.160787	9.329442	-0.000863	0.064132	-0.045294	39.978643293	116.338923509	46.121636
09476	14745751	-2.661785	-0.165127	9.381306	-0.000030	0.071664	-0.044288	39.978643292	116.338923510	46.121535
09477	14745776	-2.754398	-0.230044	9.448877	0.000723	0.075416	-0.045854	39.978643291	116.338923510	46.121434
09478	14745801	-2.760087	-0.289358	9.484607	0.004889	0.076626	-0.044699	39.978643289	116.338923511	46.121334
09479	14745826	-2.693759	-0.238341	9.450221	-0.003269	0.074102	-0.041567	39.978643288	116.338923511	46.121431
09480	14745851	-2.637072	-0.214706	9.387790	-0.009097	0.077307	-0.043049	39.978643287	116.338923512	46.121331
09481	14745876	-2.604007	-0.236700	9.383756	-0.008249	0.083372	-0.042799	39.978643286	116.338923512	46.121231
09482	14745901	-2.614959	-0.209133	9.371863	-0.010122	0.094654	-0.039880	39.978643284	116.338923513	46.121131
09483	14745926	-2.595663	-0.211893	9.370540	-0.014713	0.098501	-0.036541	39.978643283	116.338923513	46.121030
09484	14745951	-2.610874	-0.192711	9.401200	-0.012921	0.103772	-0.038409	39.978643282	116.338923514	46.120928
09485	14745976	-2.601121	-0.171919	9.360013	-0.013554	0.111608	-0.037730	39.978643280	116.338923514	46.120827
09486	14746001	-2.596869	-0.119589	9.346891	-0.018336	0.122051	-0.036338	39.978643279	116.338923514	46.120724
09487	14746026	-2.599675	-0.134743	9.353488	-0.017256	0.129646	-0.042844	39.978643278	116.338923515	46.121526
09488	14746051	-2.635536	-0.137483	9.365431	-0.022167	0.138909	-0.044082	39.978643276	116.338923515	46.121423
09489	14746076	-2.658992	-0.126598	9.385420	-0.011006	0.146337	-0.048380	39.978643275	116.338923516	46.121320
09490	14746101	-2.654777	-0.133338	9.346812	-0.012745	0.150521	-0.051150	39.978643274	116.338923516	46.121216
09491	14746126	-2.663014	-0.134654	9.337490	-0.011194	0.160918	-0.055964	39.978643272	116.338923517	46.121112
09492	14746151	-2.686590	-0.156863	9.386629	-0.002939	0.163060	-0.063036	39.978643271	116.338923517	46.121008
09493	14746176	-2.722348	-0.134799	9.368052	-0.003533	0.167540	-0.071111	39.978643270	116.338923518	46.120903
09494	14746201	-2.703212	-0.165190	9.405219	-0.006217	0.170864	-0.068761	39.978643268	116.338923518	46.120798
09495	14746226	-2.744347	-0.133306	9.348098	-0.009973	0.173965	-0.072238	39.978643267	116.338923519	46.117392
09496	14746251	-2.756870	-0.149970	9.383944	-0.011195	0.171375	-0.072372	39.978643265	116.338923519	46.117283
09497	14746276	-2.810775	-0.188626	9.422390	-0.008065	0.173077	-0.080173	39.978643264	116.338923520	46.117175
09498	14746301	-2.798249	-0.180198	9.373175	-0.003237	0.168996	-0.078253	39.978643263	116.338923520	46.117067
09499	14746326	-2.740096	-0.146871	9.292164	-0.009429	0.165910	-0.082739	39.978643261	116.338923521	46.116958
09500	14746351	-2.716629	-0.167440	9.269506	-0.005163	0.166351	-0.078450	39.978643260	116.338923521	46.116848
09501	14746376	-2.662918	-0.200465	9.260097	-0.012536	0.159572	-0.080876	39.978643259	116.338923522	46.116738
09502	14746401	-2.624397	-0.240417	9.273304	-0.019892	0.161311	-0.079308	39.978643257	116.338923522	46.116627
09503	14746426	-2.587070	-0.240257	9.225423	-0.020967	0.152707	-0.080870	39.978643256	116.338923523	46.119614
09504	14746451	-2.662946	-0.233477	9.257333	-0.025886	0.150584	-0.083542	39.978643254	116.338923523	46.119503
09505	14746476	-2.690762	-0.237957	9.354431	-0.027025	0.153370	-0.079112	39.978643253	116.338923524	46.119392
09506	14746501	-2.761225	-0.242316	9.416911	-0.024389	0.152403	-0.084096	39.978643252	116.338923524	46.119280
09507	14746526	-2.779246	-0.231460	9.459498	-0.031173	0.161383	-0.083472	39.978643250	116.338923525	46.119171
09508	14746551	-2.750171	-0.177700	9.439737	-0.032890	0.171289	-0.079799	39.978643249	116.338923526	46.119059
09509	14746576	-2.686815	-0.173636	9.451758	-0.041081	0.191033	-0.081442	39.978643247	116.338923526	46.118948
09510	14746601	-2.610859	-0.174828	9.395918	-0.042456	0.210221	-0.077774	39.978643246	116.338923527	46.118837
09511	14746626	-2.649509	-0.154235	9.418586	-0.037043	0.240199	-0.081198	39.978643244	116.338923527	46.114001
09512	14746651	-2.639952	-0.135188	9.467877	-0.045577	0.266741	-0.079973	39.978643243	116.338923528	46.113885
09513	14746676	-2.602792	-0.159991	9.471799	-0.055318	0.293414	-0.086389	39.978643241	116.338923528	46.113769
09514	14746701	-2.574913	-0.132084	9.369476	-0.059499	0.317143	-0.090882	39.978643240	116.338923529	46.113654
09515	14746726	-2.649406	-0.149955	9.381344	-0.055793	0.349423	-0.096455	39.978643239	116.338923529	46.113536
09516	14746751	-2.710270	-0.170903	9.463746	-0.052258	0.373483	-0.095262	39.978643237	116.338923530	46.113420
09517	14746776	-2.768184	-0.168227	9.477020	-0.056277	0.386152	-0.096555	39.978643235	116.338923530	46.113304
09518	14746801	-2.754291	-0.190051	9.423736	-0.063971	0.401844	-0.098445	39.978643234	116.338923531	46.113188
09519	14746826	-2.756763	-0.182712	9.309319	-0.070430	0.415315	-0.101195	39.978643232	116.338923532	46.113412
09520	14746851	-2.727674	-0.177019	9.256142	-0.071160	0.419115	-0.104456	39.978643231	116.338923532	46.113296
09521	14746876	-2.715176	-0.233233	9.194762	-0.071417	0.422655	-0.104086	39.978643229	116.338923533	46.113179
09522	14746901	-2.724850	-0.218167	9.222747	-0.069350	0.419870	-0.112455	39.978643228	116.338923533	46.113060
09523	14746926	-2.786746	-0.205606	9.176194	-0.073552	0.411068	-0.110292	39.978643226	116.338923534	46.112939
09524	14746951	-2.848958	-0.241620	9.230592	-0.077367	0.401551	-0.109501	39.978643225	116.338923534	46.112818
09525	14746976	-2.930431	-0.314592	9.256920	-0.073090	0.387134	-0.118728	39.978643223	116.338923535	46.112697
09526	14747001	-3.116907	-0.364637	9.396363	-0.060768	0.366224	-0.125879	39.978643221	116.338923536	46.112575
09527	14747026	-3.179145	-0.384195	9.466758	-0.036846	0.344783	-0.130741	39.978643220	116.338923536	46.112094
09528	14747051	-3.031236	-0.345129	9.309970	-0.051962	0.321785	-0.130019	39.978643218	116.338923537	46.111973
09529	14747076	-3.076654	-0.272168	9.322163	-0.061049	0.305760	-0.122322	39.978643217	116.338923537	46.111853
09530	14747101	-3.085147	-0.363183	9.367093	-0.061704	0.286038	-0.120184	39.978643215	116.338923538	46.111732
09531	14747126	-3.087869	-0.368604	9.335139	-0.060432	0.273439	-0.114533	39.978643214	116.338923538	46.111613
09532	14747151	-3.152770	-0.370198	9.404299	-0.059862	0.263040	-0.113335	39.978643212	116.338923539	46.111494
09533	14747176	-3.123943	-0.362050	9.434934	-0.054926	0.245197	-0.111964	39.978643211	116.338923540	46.111375
09534	14747201	-3.056228	-0.348090	9.373808	-0.061695	0.241171	-0.111762	39.978643209	116.338923540	46.111257
09535	14747226	-2.918141	-0.277668	9.308925	-0.061184	0.240207	-0.105491	39.978643208	116.338923541	46.111516
09538	14747251	-2.948426	-0.331124	9.255505	-0.064816	0.243555	-0.101209	39.978643206	116.338923541	46.111398
09539	14747276	-2.961014	-0.308090	9.354030	-0.061347	0.246917	-0.104126	39.978643204	116.338923542	46.111280
09540	14747301	-2.912692	-0.307998	9.319467	-0.063416	0.246970	-0.108956	39.978643203	116.338923542	46.111162
09541	14747326	-2.862994	-0.292696	9.278294	-0.057973	0.255007	-0.107293	39.978643046	116.338923669	46.106822
09542	14747351	-2.959354	-0.324073	9.215600	-0.056303	0.269501	-0.112116	39.978643044	116.338923670	46.106697
09543	14747376	-3.035576	-0.280813	9.419275	-0.047407	0.275219	-0.112990	39.978643042	116.338923671	46.106572
09544	14747401	-3.056400	-0.366168	9.417658	-0.047630	0.278604	-0.110304	39.978643041	116.338923671	46.106448
09545	14747426	-3.024489	-0.316393	9.367260	-0.062047	0.290939	-0.113745	39.978643039	116.338923672	46.105221
09546	14747451	-2.854855	-0.314887	9.324790	-0.048313	0.295322	-0.111505	39.978643037	116.338923673	46.105096
09547	14747476	-2.879322	-0.402265	9.136885	-0.045584	0.310402	-0.115316	39.978643035	116.338923673	46.104971
09548	14747501	-2.969512	-0.526749	9.308071	-0.037371	0.330453	-0.115582	39.978643033	116.338923674	46.104844
09549	14747526	-3.005594	-0.516192	9.417176	-0.033970	0.337197	-0.119942	39.978643032	116.338923675	46.104720
09550	14747551	-2.893516	-0.438656	9.283110	-0.033425	0.342262	-0.119123	39.978643030	116.338923675	46.104594
09551	14747576	-2.832594	-0.392853	9.190167	-0.028905	0.356168	-0.109650	39.978643028	116.338923676	46.104468
09552	14747601	-2.967642	-0.355717	9.211502	-0.033173	0.369732	-0.101940	39.978643026	116.338923676	46.104340
09553	14747626	-3.064428	-0.309471	9.363282	-0.035153	0.385670	-0.103788	39.978643024	116.338923677	46.102428
09554	14747651	-2.916911	-0.336979	9.327329	-0.040418	0.391077	-0.094253	39.978643022	116.338923678	46.102298
09555	14747676	-2.621407	-0.336080	9.088004	-0.045227	0.401932	-0.099479	39.978643021	116.338923678	46.102168
09556	14747701	-2.448654	-0.441203	8.852259	-0.036617	0.423215	-0.106305	39.978643019	116.338923679	46.102034
09557	14747726	-2.434880	-0.428847	8.864298	-0.013246	0.442062	-0.109826	39.978643017	116.338923679	46.101891
09558	14747751	-2.600482	-0.397567	8.973425	-0.010994	0.466853	-0.110087	39.978643015	116.338923680	46.101750
09559	14747776	-2.765018	-0.351665	9.210312	-0.011431	0.482038	-0.111425	39.978643013	116.338923681	46.101607
09560	14747801	-2.818840	-0.390162	9.208814	-0.009595	0.493860	-0.109795	39.978643011	116.338923681	46.101463
09561	14747826	-2.942774	-0.413332	9.142142	-0.010173	0.511403	-0.105503	39.978643009	116.338923682	46.102432
09562	14747851	-2.963659	-0.342187	9.275412	-0.006452	0.531012	-0.106308	39.978643007	116.338923682	46.102287
09563	14747876	-2.900096	-0.284281	9.233050	-0.002117	0.548656	-0.104278	39.978643005	116.338923683	46.102142
09564	14747901	-2.847487	-0.358094	9.094466	-0.009163	0.562044	-0.108410	39.978643003	116.338923683	46.101995
09565	14747926	-2.846117	-0.392413	9.085044	-0.001821	0.591312	-0.116515	39.978643000	116.338923684	46.101844
09566	14747951	-2.858671	-0.424270	9.138138	0.019249	0.609149	-0.124562	39.978642998	116.338923684	46.101694
09567	14747976	-2.902569	-0.412935	9.038385	0.029545	0.627275	-0.126682	39.978642996	116.338923685	46.101543
09568	14748001	-2.949684	-0.416104	9.155416	0.022402	0.652556	-0.129020	39.978642994	116.338923685	46.101390
09569	14748026	-2.920773	-0.432557	9.142070	0.025742	0.673036	-0.134639	39.978642992	116.338923686	46.100917
09570	14748051	-3.036226	-0.521239	8.944838	0.032607	0.699780	-0.134550	39.978642990	116.338923686	46.100761
09571	14748076	-3.156667	-0.360163	9.299181	0.045684	0.726091	-0.126214	39.978642988	116.338923687	46.100604
09572	14748101	-3.076711	-0.305082	9.282096	0.040302	0.741172	-0.119190	39.978642985	116.338923687	46.100447
09573	14748126	-2.963239	-0.319503	9.085166	0.013505	0.780226	-0.118367	39.978642983	116.338923688	46.100289
09574	14748151	-2.810268	-0.331819	9.074561	0.019597	0.834298	-0.119612	39.978642981	116.338923688	46.100129
09575	14748176	-2.703042	-0.336440	9.193044	0.030242	0.914976	-0.130099	39.978642979	116.338923689	46.099968
09576	14748201	-2.750042	-0.256960	9.286463	0.044422	0.986563	-0.136179	39.978642976	116.338923689	46.099805
09577	14748226	-2.837980	-0.293659	9.157170	0.030746	1.059458	-0.132781	39.978642974	116.338923690	46.100072
09578	14748251	-2.669639	-0.287829	9.078750	0.034451	1.135220	-0.147583	39.978642972	116.338923690	46.099907
09579	14748276	-2.577805	-0.571547	9.139181	0.070684	1.199894	-0.161871	39.978642969	116.338923690	46.099739
09580	14748301	-2.936397	-0.812107	9.083672	0.144015	1.251506	-0.183198	39.978642967	116.338923691	46.099570
09581	14748326	-3.212236	-0.823621	9.195151	0.180946	1.301243	-0.199153	39.978642964	116.338923691	46.099403
09582	14748351	-3.006713	-0.604697	9.208001	0.225471	1.329456	-0.184375	39.978642962	116.338923691	46.099232
09583	14748376	-3.241121	-0.876926	9.109878	0.266291	1.350624	-0.154412	39.978642959	116.338923692	46.099061
09584	14748401	-3.322042	-0.659734	9.135803	0.214452	1.355434	-0.113875	39.978642957	116.338923692	46.098889
09585	14748426	-3.160581	-0.677073	8.996123	0.117412	1.329804	-0.050862	39.978642954	116.338923692	46.104987
09586	14748451	-3.350060	-0.851635	8.608301	0.104742	1.283818	-0.021172	39.978642952	116.338923692	46.104818
09587	14748476	-3.439086	-0.708121	8.507626	0.116354	1.229521	-0.005083	39.978642949	116.338923692	46.104644
09588	14748501	-3.739057	-0.460228	8.475036	0.088762	1.155894	0.003505	39.978642947	116.338923693	46.104468
09589	14748526	-3.848061	-0.266604	8.619336	0.089204	1.068302	0.012451	39.978642944	116.338923693	46.104290
09590	14748551	-4.017199	-0.176763	8.516997	0.091052	0.985086	-0.000794	39.978642941	116.338923693	46.104108
09591	14748576	-3.880848	-0.012122	8.651960	0.088257	0.919678	-0.014761	39.978642939	116.338923693	46.103924
09592	14748601	-3.593130	-0.226724	8.616787	0.097358	0.870349	-0.045237	39.978642936	116.338923693	46.103737
09593	14748626	-3.711595	-0.335186	8.552551	0.118727	0.858937	-0.054014	39.978642934	116.338923693	46.102447
09594	14748651	-3.586056	-0.407240	9.024644	0.129683	0.856613	-0.061424	39.978642931	116.338923694	46.102255
09595	14748676	-3.473126	-0.453852	8.970031	0.115226	0.857626	-0.062718	39.978642929	116.338923694	46.102061
09596	14748701	-3.289822	-0.598104	8.904433	0.119995	0.887601	-0.051318	39.978642926	116.338923694	46.101867
09597	14748726	-3.490978	-0.602093	8.864503	0.135633	0.928404	-0.043286	39.978642924	116.338923694	46.101668
09598	14748751	-3.935337	-0.258278	9.324336	0.118153	0.978965	-0.019327	39.978642921	116.338923694	46.101471
09599	14748776	-3.971980	-0.400719	9.496835	0.100663	1.012785	-0.001228	39.978642918	116.338923694	46.101278
09600	14748801	-4.067628	-0.274294	9.219105	0.104606	1.067530	0.000925	39.978642916	116.338923694	46.101086
09601	14748826	-4.321348	-0.464046	9.170545	0.123996	1.140941	-0.003937	39.978642913	116.338923694	46.101311
09602	14748851	-5.022396	-0.266372	9.721428	0.146118	1.212155	-0.006481	39.978642910	116.338923694	46.101127
09603	14748876	-4.627826	-0.244145	10.011788	0.158197	1.252588	0.003047	39.978642908	116.338923694	46.100950
09604	14748901	-4.427831	-0.277495	9.358452	0.167705	1.308330	-0.003479	39.978642905	116.338923694	46.100778
09605	14748926	-4.056445	-0.333161	9.130958	0.183742	1.385305	0.006855	39.978642903	116.338923694	46.100598
09606	14748951	-3.939281	-0.304379	9.149874	0.193875	1.456968	0.009075	39.978642900	116.338923695	46.100430
09607	14748976	-4.372496	-0.445171	9.286304	0.194110	1.517690	0.006992	39.978642897	116.338923695	46.100264
09608	14749001	-4.397857	-0.449970	9.479002	0.250437	1.551711	0.015660	39.978642895	116.338923695	46.100101
09609	14749026	-4.135506	-0.462906	9.239673	0.295955	1.568028	0.016712	39.978642892	116.338923695	46.098895
09610	14749051	-4.135633	-0.269148	8.905023	0.278665	1.594399	0.030987	39.978642889	116.338923695	46.098735
09611	14749076	-3.995313	-0.270967	9.052904	0.259565	1.595239	0.069600	39.978642887	116.338923695	46.098576
09612	14749101	-4.385623	-0.249133	9.122051	0.237940	1.593230	0.086060	39.978642884	116.338923695	46.098418
09613	14749126	-4.840312	-0.337007	9.076126	0.250314	1.585556	0.106417	39.978642881	116.338923695	46.098268
09614	14749151	-4.643912	-0.185544	9.449231	0.264231	1.548859	0.124444	39.978642879	116.338923695	46.098116
09615	14749176	-4.337821	-0.238706	9.285609	0.300433	1.486314	0.130501	39.978642876	116.338923695	46.097968
09616	14749201	-4.315692	-0.114446	8.800423	0.279868	1.440809	0.133331	39.978642873	116.338923695	46.097822
09617	14749226	-4.296141	-0.041466	8.784678	0.251733	1.412914	0.147022	39.978642870	116.338923695	46.101138
09618	14749251	-4.323243	-0.130777	9.114356	0.233013	1.391289	0.146698	39.978642868	116.338923695	46.100996
09619	14749276	-4.135135	-0.241534	9.308296	0.250994	1.361779	0.133091	39.978642865	116.338923695	46.100855
09620	14749301	-4.226907	-0.332446	8.947460	0.286190	1.343829	0.119250	39.978642862	116.338923695	46.100716
09621	14749326	-4.220593	-0.303922	8.675944	0.291091	1.372320	0.121588	39.978642859	116.338923695	46.100572
09622	14749351	-3.897755	-0.216503	9.208602	0.296056	1.412766	0.111465	39.978642856	116.338923695	46.100433
09623	14749376	-3.608937	-0.424310	9.220171	0.346981	1.452745	0.087933	39.978642853	116.338923695	46.100294
09624	14749401	-3.759461	-0.242822	8.885393	0.409010	1.554161	0.065635	39.978642850	116.338923695	46.100154
09625	14749426	-3.601589	-0.099854	9.299578	0.449989	1.698863	0.062646	39.978642847	116.338923695	46.100455
09626	14749451	-3.354388	-0.209159	9.445743	0.517870	1.836711	0.059339	39.978642844	116.338923695	46.100316
09627	14749476	-3.271461	-0.110349	9.547379	0.591174	2.021129	0.044268	39.978642840	116.338923695	46.100177
09628	14749501	-3.222059	-0.344639	9.275099	0.720614	2.175832	0.027786	39.978642837	116.338923694	46.100039
09629	14749526	-3.214609	-0.204435	8.601017	0.833803	2.365960	0.003615	39.978642834	116.338923694	46.099889
09630	14749551	-3.280253	-0.222546	8.595628	0.960747	2.584916	-0.025147	39.978642830	116.338923694	46.099742
09631	14749576	-3.341037	0.097855	8.693910	1.006984	2.754893	-0.040655	39.978642826	116.338923694	46.099592
09632	14749601	-3.521982	0.297885	8.255359	1.032935	2.931228	-0.070083	39.978642823	116.338923693	46.099436
09633	14749626	-3.481009	0.145536	8.084081	1.128087	3.198479	-0.121031	39.978642819	116.338923693	46.099728
09634	14749651	-3.060203	-0.094239	8.867372	1.266813	3.433548	-0.202391	39.978642815	116.338923693	46.099561
09635	14749676	-3.663073	1.322776	8.730717	1.304286	3.602390	-0.353356	39.978642811	116.338923692	46.099391
09636	14749701	-4.274854	1.335178	8.406099	1.290072	3.722421	-0.448433	39.978642807	116.338923692	46.099217
09637	14749726	-5.019768	0.791130	7.106037	1.206746	3.759531	-0.550478	39.978642803	116.338923692	46.099035
09640	14749751	-5.284704	1.202152	6.365580	0.957351	3.687329	-0.625708	39.978642798	116.338923692	46.098849
09641	14749776	-5.253955	0.914479	7.137577	0.843699	3.554941	-0.643095	39.978642794	116.338923692	46.098655
09642	14749801	-1.987153	-0.752870	6.588694	0.823748	3.750640	-0.661303	39.978642790	116.338923692	46.098447
09643	14749826	1.402056	-0.750919	9.560010	0.779205	4.338503	-0.635754	39.978642534	116.338923814	46.096113
09644	14749851	0.534972	-2.679630	10.656638	0.833886	4.975320	-0.459835	39.978642529	116.338923814	46.095873
09645	14749876	-2.507515	-2.394380	12.731524	1.074538	5.475617	-0.446223	39.978642523	116.338923813	46.095634
09646	14749901	-4.112076	0.840818	9.378132	0.572455	5.452525	-0.498394	39.978642517	116.338923812	46.095401
09647	14749926	-5.788598	0.310873	6.035043	0.847649	5.444465	-0.611359	39.978642512	116.338923812	46.095160
09648	14749951	-4.374976	-0.342836	7.772001	1.151491	5.631848	-0.878088	39.978642507	116.338923812	46.094914
09649	14749976	-2.341870	-0.948232	11.047453	1.438462	5.835684	-1.153313	39.978642501	116.338923811	46.094666
09650	14750001	-2.891840	-1.155072	12.159944	1.626968	6.063358	-1.307072	39.978642495	116.338923810	46.094421
09651	14750026	-4.851014	-0.105448	13.711066	1.514259	6.226113	-1.332936	39.978642488	116.338923809	46.094674
09652	14750051	-5.533757	0.815660	13.771286	1.181741	6.236235	-1.371850	39.978642481	116.338923808	46.094468
09653	14750076	-6.521532	3.566689	12.000976	1.086174	6.302615	-1.471703	39.978642474	116.338923806	46.094285
09654	14750101	-6.219408	3.475884	10.939877	1.048257	6.403758	-1.684215	39.978642466	116.338923805	46.094121
09655	14750126	-5.287577	4.255050	9.420615	1.254249	6.511677	-1.965602	39.978642459	116.338923805	46.093930
09656	14750151	-4.833131	3.276368	9.666228	1.364505	6.605712	-2.222843	39.978642451	116.338923804	46.093777
09657	14750176	-6.409074	1.241435	9.830908	1.512197	6.746924	-2.477076	39.978642443	116.338923804	46.093630
09658	14750201	-7.007642	-0.379643	10.154083	1.842579	6.898246	-2.678922	39.978642435	116.338923803	46.093495
09659	14750226	-5.926648	2.723519	10.922822	1.962608	6.978555	-2.771339	39.978642426	116.338923803	46.093845
09660	14750251	-4.220802	4.659815	15.074461	1.384742	6.899728	-2.572488	39.978642418	116.338923802	46.093737
09661	14750276	-3.400100	1.220740	15.378632	0.988720	6.905224	-2.631187	39.978642408	116.338923802	46.093645
09662	14750301	-8.426366	-3.714769	10.948001	1.320386	7.255640	-2.796141	39.978642398	116.338923801	46.093572
09663	14750326	-11.187441	-6.690863	9.319059	1.884415	7.537974	-2.882881	39.978642390	116.338923799	46.093545
09664	14750351	-10.635237	-4.595388	9.832599	2.189740	7.586498	-2.848920	39.978642380	116.338923797	46.093527
09665	14750376	-9.489994	2.580483	12.206312	2.134193	7.484727	-2.778313	39.978642370	116.338923796	46.093538
09666	14750401	-10.184010	14.182253	17.994850	1.112303	7.405855	-2.388334	39.978642359	116.338923794	46.093590
09667	14750426	-9.220658	11.230770	16.651480	-0.083306	7.461210	-2.424859	39.978642347	116.338923795	46.030278
09668	14750451	-7.396137	10.767008	13.707941	-0.125561	7.599234	-2.810827	39.978642335	116.338923795	46.019913
09669	14750476	-5.957458	8.573571	10.635040	0.105773	7.487250	-3.109683	39.978642322	116.338923796	46.009558
09670	14750501	-5.197989	7.256842	8.648225	0.164288	7.468686	-3.366315	39.978642309	116.338923797	45.999201
09671	14750526	-4.642125	5.597927	9.378224	0.064945	7.653591	-3.607482	39.978642296	116.338923797	45.988782
09672	14750551	-3.760136	3.954684	11.891172	0.055882	7.810966	-3.790857	39.978642282	116.338923799	45.978405
09673	14750576	-2.484722	4.084124	18.046584	0.167202	7.765268	-3.922865	39.978642268	116.338923800	45.968023
09674	14750601	-3.306320	3.421338	19.148851	0.218016	7.603258	-3.997029	39.978642252	116.338923801	45.957642
09675	14750626	-2.430161	3.484733	15.925961	-0.276951	7.639377	-4.002807	39.978642235	116.338923802	45.846452
09676	14750651	-0.918574	3.991660	12.516580	-1.067626	7.826200	-3.910306	39.978642218	116.338923803	45.824740
09677	14750676	-1.318378	3.821832	9.370509	-1.748234	8.012589	-3.727807	39.978642200	116.338923804	45.802995
09678	14750701	-4.182132	3.937544	7.938307	-2.449823	8.317660	-3.520872	39.978642182	116.338923806	45.781220
09679	14750726	-4.029642	5.110244	12.306763	-2.944382	8.457687	-3.372970	39.978642163	116.338923807	45.759449
09680	14750751	-3.209940	6.602490	12.874723	-3.150279	8.320193	-3.243103	39.978642144	116.338923809	45.737634
09681	14750776	-8.703648	12.001770	11.951129	-3.384406	8.268202	-2.895089	39.978642124	116.338923811	45.715806
09682	14750801	-25.051524	14.709158	22.172465	-3.467394	8.154937	-2.217638	39.978642102	116.338923813	45.694032
09683	14750826	-42.017013	20.811575	31.741192	-3.160148	7.595213	-1.211911	39.978642078	116.338923819	45.876456
09684	14750851	-47.579311	20.113075	44.232724	-2.484475	6.505929	-0.016126	39.978642054	116.338923824	45.877019
09685	14750876	-49.211957	14.575054	65.166366	-0.605956	4.214379	0.661132	39.978642026	116.338923830	45.877864
09686	14750901	-47.831737	12.969843	63.576430	1.838085	1.365247	0.820045	39.978641995	116.338923837	45.879006
09687	14750926	-36.296063	15.564499	53.180142	3.217782	-0.891594	0.841084	39.978641961	116.338923842	45.880306
09688	14750951	-24.374328	18.258644	41.224776	3.044063	-2.524652	0.851672	39.978641925	116.338923849	45.881859
09689	14750976	-15.444578	22.293234	34.767424	1.261538	-3.279378	0.684582	39.978641886	116.338923857	45.883500
09690	14751001	-12.265169	24.977113	39.986177	0.719365	-3.566181	0.409460	39.978641845	116.338923866	45.885191
09691	14751026	-6.752018	22.430381	43.964219	2.793619	-2.619175	-0.168871	39.978641801	116.338923875	45.937639
09692	14751051	0.312893	20.586362	41.740934	3.294264	-1.210379	-0.385014	39.978641755	116.338923885	45.944986
09693	14751076	-0.093501	18.364724	44.242305	0.829685	-0.902933	0.044233	39.978641707	116.338923896	45.952315
09694	14751101	-4.607785	16.239937	37.223692	-1.496546	-1.470284	0.342706	39.978641655	116.338923906	45.959639
09695	14751126	-3.740437	15.068563	26.456420	-2.120355	-1.849880	0.422346	39.978641604	116.338923917	45.966984
09696	14751151	-1.380488	12.948908	17.989444	-2.169871	-1.967287	0.490895	39.978641550	116.338923929	45.974280
09697	14751176	1.139211	11.011403	14.236512	-2.276705	-1.931754	0.527076	39.978641494	116.338923941	45.981528
09698	14751201	3.502346	10.281391	13.300824	-2.468885	-2.013142	0.544929	39.978641438	116.338923953	45.988713
09699	14751226	2.900618	8.674730	10.839024	-2.671359	-2.086789	0.524382	39.978641381	116.338923965	45.810593
09700	14751251	2.168423	7.741212	9.041774	-2.695375	-2.082481	0.476782	39.978641323	116.338923978	45.802371
09701	14751276	1.681178	7.310745	7.457803	-2.566118	-2.062029	0.403689	39.978641265	116.338923991	45.794083
09702	14751301	1.378845	6.556980	5.990530	-2.412858	-2.037820	0.364571	39.978641206	116.338924004	45.785730
09703	14751326	0.980358	5.755583	4.555983	-2.349766	-2.100229	0.334454	39.978641147	116.338924018	45.777314
09704	14751351	1.617035	5.112701	2.043877	-2.160021	-2.192921	0.340464	39.978641087	116.338924032	45.768827
09705	14751376	2.766845	3.707346	-2.345904	-1.372764	-2.196918	0.414377	39.978641027	116.338924047	45.760262
09706	14751401	2.508011	0.982573	-3.732752	-0.440747	-2.116006	0.417869	39.978640968	116.338924061	45.751611
09707	14751426	1.876197	0.668542	-0.234636	0.063710	-2.095265	0.350967	39.978640908	116.338924075	46.262156
09708	14751451	1.686290	2.600589	4.642760	0.197691	-2.293386	0.353443	39.978640848	116.338924090	46.283990
09709	14751476	1.368126	3.441180	6.550897	0.072782	-2.521051	0.425797	39.978640788	116.338924105	46.305762
09710	14751501	1.400188	3.514742	7.143431	-0.154157	-2.675270	0.527843	39.978640728	116.338924119	46.327473
09711	14751526	1.626334	3.146714	6.964041	-0.252471	-2.734348	0.613870	39.978640666	116.338924134	46.349134
09712	14751551	1.776927	2.438421	6.839188	-0.198248	-2.709585	0.702512	39.978640605	116.338924149	46.370725
09713	14751576	1.546278	2.084333	7.287354	-0.081721	-2.681691	0.780098	39.978640543	116.338924164	46.392258
09714	14751601	1.151875	2.027044	7.875071	-0.010866	-2.698341	0.848067	39.978640481	116.338924179	46.413735
09715	14751626	0.640201	2.093114	8.610658	0.007252	-2.743843	0.923104	39.978640418	116.338924194	45.782206
09716	14751651	0.182843	2.124422	9.117564	0.031285	-2.792077	0.980953	39.978640354	116.338924209	45.773997
09717	14751676	-0.024624	2.108359	9.773500	0.097803	-2.769071	1.015947	39.978640290	116.338924223	45.765746
09718	14751701	-0.232336	2.206238	10.807418	0.172983	-2.740309	1.052905	39.978640226	116.338924238	45.757454
09719	14751726	-0.613036	2.347425	11.651220	0.178108	-2.755145	1.094372	39.978640161	116.338924253	45.749146
09720	14751751	-0.901284	2.545479	12.061701	0.095268	-2.835922	1.153494	39.978640095	116.338924268	45.740788
09721	14751776	-1.154402	2.404587	11.879996	0.019296	-2.944138	1.208827	39.978640029	116.338924282	45.732399
09722	14751801	-1.410412	2.286093	11.596076	0.022319	-3.036909	1.238041	39.978639962	116.338924297	45.723983
09723	14751826	-1.563130	2.296221	11.488325	0.062026	-3.137936	1.250953	39.978639895	116.338924312	46.138163
09724	14751851	-1.660756	2.202858	11.392156	0.085180	-3.267828	1.266276	39.978639827	116.338924327	46.145183
09725	14751876	-1.718427	2.152487	11.247049	0.054592	-3.409833	1.280712	39.978639758	116.338924341	46.152178
09726	14751901	-1.702848	2.052799	11.048463	0.030103	-3.524992	1.292272	39.978639689	116.338924356	46.159149
09727	14751926	-1.539826	1.782770	10.757697	0.016986	-3.621011	1.305339	39.978639619	116.338924371	46.166094
09728	14751951	-1.414975	1.448561	10.282924	0.002694	-3.698106	1.315213	39.978639549	116.338924385	46.173013
09729	14751976	-1.352187	1.138132	9.759035	-0.022179	-3.745743	1.337921	39.978639478	116.338924400	46.179904
09730	14752001	-1.294753	0.770003	9.179018	-0.041090	-3.783915	1.357573	39.978639407	116.338924414	46.186768
09731	14752026	-1.274195	0.435311	8.504573	-0.042813	-3.808877	1.367921	39.978639336	116.338924429	46.134596
09732	14752051	-1.293754	0.129529	7.843670	-0.034078	-3.830874	1.375276	39.978639264	116.338924443	46.139586
09733	14752076	-1.291269	-0.132503	7.234640	-0.012800	-3.851310	1.382898	39.978639191	116.338924457	46.144543
09734	14752101	-1.450694	-0.499508	6.736944	0.010361	-3.860591	1.385903	39.978639119	116.338924471	46.149467
09735	14752126	-1.626512	-0.741692	6.379573	0.070086	-3.877764	1.378958	39.978639046	116.338924485	46.154357
09736	14752151	-1.637992	-0.951792	5.878640	0.127286	-3.894982	1.373767	39.978638973	116.338924499	46.159215
09737	14752176	-1.633511	-1.139154	5.550642	0.163720	-3.900732	1.364735	39.978638900	116.338924513	46.164039
09738	14752201	-1.663650	-1.354520	5.365003	0.215172	-3.914801	1.349461	39.978638826	116.338924527	46.168828
09739	14752226	-1.769779	-1.587809	5.168473	0.273151	-3.928861	1.328023	39.978638753	116.338924540	46.134508
09742	14752251	-1.840128	-1.744336	5.078837	0.332379	-3.935000	1.304345	39.978638679	116.338924553	46.138195
09743	14752276	-1.913629	-1.840888	5.122354	0.390712	-3.946745	1.281155	39.978638605	116.338924566	46.141849
09744	14752301	-2.018962	-1.911717	5.296368	0.454455	-3.959786	1.256264	39.978638531	116.338924579	46.145470
09745	14752326	-2.040047	-1.957768	5.469294	0.500058	-3.967048	1.232144	39.978641984	116.338923668	45.986118
09746	14752351	-2.107476	-1.796998	5.884748	0.549124	-3.956716	1.186793	39.978641962	116.338923667	45.986010
09747	14752376	-2.349896	-1.731676	6.460881	0.605947	-3.944826	1.161189	39.978641939	116.338923665	45.985874
09748	14752401	-2.548283	-1.663507	6.997238	0.637704	-3.943990	1.141753	39.978641916	116.338923663	45.985715
09749	14752426	-2.738744	-1.643913	7.645141	0.647035	-3.928673	1.125648	39.978641893	116.338923662	46.057276
09750	14752451	-2.979855	-1.547024	8.248003	0.650357	-3.927274	1.110656	39.978641869	116.338923660	46.057084
09751	14752476	-3.306408	-1.441690	8.796328	0.650585	-3.924965	1.105629	39.978641846	116.338923657	46.056878
09752	14752501	-3.630380	-1.320244	9.453819	0.659686	-3.932935	1.090037	39.978641822	116.338923655	46.056663
09753	14752526	-3.960849	-1.148855	10.013146	0.650579	-3.944869	1.081747	39.978641798	116.338923653	46.056464
09754	14752551	-4.266485	-0.984192	10.529687	0.629271	-3.974234	1.071461	39.978641773	116.338923650	46.056243
09755	14752576	-4.569173	-0.877121	10.992994	0.609584	-4.018483	1.058361	39.978641748	116.338923647	46.056025
09756	14752601	-4.804216	-0.799905	11.347005	0.584920	-4.065446	1.052145	39.978641723	116.338923644	46.055813
09757	14752626	-5.007846	-0.762802	11.743562	0.571926	-4.104936	1.040684	39.978641698	116.338923641	46.048878
09758	14752651	-5.230705	-0.746505	12.174560	0.569703	-4.152193	1.038182	39.978641672	116.338923637	46.048686
09759	14752676	-5.461668	-0.692742	12.528535	0.556430	-4.205687	1.035476	39.978641647	116.338923634	46.048508
09760	14752701	-5.726931	-0.634677	12.834534	0.532003	-4.263299	1.042756	39.978641620	116.338923630	46.048349
09761	14752726	-5.939449	-0.646171	13.000879	0.511147	-4.322581	1.044526	39.978641594	116.338923627	46.048223
09762	14752751	-6.070911	-0.642605	13.157722	0.505829	-4.366245	1.053279	39.978641567	116.338923623	46.048106
09763	14752776	-6.235248	-0.649976	13.301318	0.508995	-4.396488	1.056963	39.978641540	116.338923618	46.048012
09764	14752801	-6.374663	-0.676517	13.388967	0.500750	-4.440365	1.064339	39.978641513	116.338923614	46.047944
09765	14752826	-6.566045	-0.696971	13.378153	0.477157	-4.485358	1.071405	39.978641485	116.338923610	46.073151
09766	14752851	-6.709285	-0.773632	13.278051	0.479910	-4.532427	1.073277	39.978641457	116.338923605	46.073140
09767	14752876	-6.872230	-0.845196	13.271024	0.490314	-4.577683	1.082766	39.978641429	116.338923601	46.073156
09768	14752901	-7.024102	-0.899149	13.357282	0.495875	-4.625197	1.084282	39.978641401	116.338923596	46.073202
09769	14752926	-7.129024	-0.941977	13.414305	0.502211	-4.670805	1.098826	39.978641373	116.338923591	46.073284
09770	14752951	-7.227053	-0.986143	13.446059	0.503476	-4.711471	1.114308	39.978641344	116.338923586	46.073391
09771	14752976	-7.316588	-0.991628	13.443335	0.510110	-4.748389	1.126907	39.978641315	116.338923580	46.073530
09772	14753001	-7.411750	-1.041038	13.421768	0.519334	-4.781797	1.143093	39.978641286	116.338923575	46.073701
09773	14753026	-7.493121	-1.067257	13.420332	0.519093	-4.806142	1.160480	39.978641257	116.338923569	46.113500
09774	14753051	-7.572872	-1.036744	13.373772	0.519248	-4.838740	1.174532	39.978641228	116.338923563	46.113743
09775	14753076	-7.645757	-1.044754	13.302001	0.512614	-4.857690	1.181670	39.978641199	116.338923557	46.114019
09776	14753101	-7.631767	-0.974340	13.254275	0.500936	-4.880708	1.193735	39.978641170	116.338923551	46.114329
09777	14753126	-7.649478	-0.968528	13.167838	0.481804	-4.892367	1.205782	39.978641140	116.338923545	46.114671
09778	14753151	-7.621527	-0.924116	13.065613	0.454888	-4.906865	1.224539	39.978641111	116.338923539	46.115046
09779	14753176	-7.597865	-0.865956	12.957957	0.424434	-4.916856	1.232997	39.978641081	116.338923532	46.115454
09780	14753201	-7.610118	-0.860220	12.906054	0.391890	-4.916978	1.238435	39.978641052	116.338923526	46.115894
09781	14753226	-7.576715	-0.817256	12.826397	0.357793	-4.920701	1.239678	39.978641022	116.338923519	46.108365
09782	14753251	-7.610972	-0.774335	12.746633	0.321860	-4.916970	1.253272	39.978640992	116.338923512	46.108865
09783	14753276	-7.627308	-0.728559	12.666942	0.286058	-4.915899	1.258195	39.978640963	116.338923505	46.109397
09784	14753301	-7.614783	-0.703658	12.623158	0.241251	-4.902615	1.260690	39.978640933	116.338923498	46.109960
09785	14753326	-7.660242	-0.744892	12.618952	0.203630	-4.889458	1.259221	39.978640904	116.338923491	46.110552
09786	14753351	-7.691899	-0.768159	12.561596	0.167641	-4.875354	1.266774	39.978640874	116.338923483	46.111175
09787	14753376	-7.723566	-0.843607	12.509493	0.127486	-4.861402	1.267777	39.978640845	116.338923476	46.111828
09788	14753401	-7.741446	-0.876485	12.476047	0.093745	-4.838899	1.258752	39.978640815	116.338923468	46.112512
09789	14753426	-7.749605	-0.884487	12.417567	0.076180	-4.819285	1.256408	39.978640786	116.338923460	46.171500
09790	14753451	-7.748147	-0.927022	12.368197	0.049639	-4.791609	1.256905	39.978640757	116.338923453	46.172253
09791	14753476	-7.768475	-0.863345	12.273830	0.027792	-4.762723	1.253900	39.978640728	116.338923445	46.173035
09792	14753501	-7.805359	-0.822993	12.155509	0.006875	-4.727955	1.243760	39.978640699	116.338923437	46.173845
09793	14753526	-7.905648	-0.767472	12.051870	-0.011979	-4.685879	1.233377	39.978640670	116.338923428	46.174680
09794	14753551	-7.952196	-0.668098	11.965709	-0.026551	-4.641333	1.227707	39.978640641	116.338923420	46.175545
09795	14753576	-7.989296	-0.601766	11.909968	-0.041120	-4.591637	1.208283	39.978640612	116.338923412	46.176436
09796	14753601	-8.018105	-0.495862	11.924983	-0.065342	-4.541493	1.188273	39.978640584	116.338923403	46.177354
09797	14753626	-8.030721	-0.471203	11.978316	-0.084398	-4.486956	1.170827	39.978640555	116.338923395	46.185357
09798	14753651	-8.041924	-0.412529	12.103494	-0.110280	-4.429809	1.154243	39.978640527	116.338923386	46.186329
09799	14753676	-8.156692	-0.318058	12.232691	-0.125594	-4.375690	1.127470	39.978640499	116.338923378	46.187329
09800	14753701	-8.300590	-0.321727	12.480177	-0.144606	-4.328937	1.101492	39.978640472	116.338923369	46.188358
09801	14753726	-8.448880	-0.258059	12.774226	-0.162437	-4.272388	1.071666	39.978640444	116.338923360	46.189424
09802	14753751	-8.637382	-0.267956	13.206548	-0.164055	-4.221952	1.036613	39.978640417	116.338923351	46.190516
09803	14753776	-8.922554	-0.284800	13.677291	-0.168020	-4.182011	1.004373	39.978640390	116.338923342	46.191644
09804	14753801	-9.230060	-0.281395	14.261243	-0.160035	-4.146116	0.972439	39.978640363	116.338923333	46.192810
09805	14753826	-9.554079	-0.261624	14.863770	-0.149811	-4.122199	0.937687	39.978640337	116.338923324	46.203977
09806	14753851	-9.948409	-0.273575	15.507539	-0.130763	-4.111285	0.907789	39.978640310	116.338923315	46.205235
09807	14753876	-10.327674	-0.300457	16.104603	-0.102634	-4.106181	0.882528	39.978640284	116.338923306	46.206544
09808	14753901	-10.748396	-0.313950	16.784252	-0.066431	-4.111305	0.849585	39.978640259	116.338923297	46.207909
09809	14753926	-11.149534	-0.237831	17.442980	-0.010318	-4.123753	0.818118	39.978640233	116.338923288	46.209354
09810	14753951	-11.525905	-0.153500	18.080337	0.043690	-4.149732	0.789124	39.978640209	116.338923278	46.210841
09811	14753976	-11.926953	-0.056660	18.712469	0.090416	-4.182290	0.766232	39.978640184	116.338923269	46.212396
09812	14754001	-12.357923	0.084595	19.231618	0.128677	-4.230128	0.739070	39.978640160	116.338923259	46.214022
09813	14754026	-12.776139	0.230490	19.619100	0.157198	-4.283524	0.722550	39.978640137	116.338923250	46.252234
09814	14754051	-13.053212	0.346838	19.783128	0.182211	-4.336448	0.699601	39.978640113	116.338923241	46.254021
09815	14754076	-13.234451	0.548073	19.701235	0.183701	-4.389900	0.680981	39.978640091	116.338923231	46.255883
09816	14754101	-13.286747	0.760104	19.321474	0.159750	-4.441787	0.651299	39.978640069	116.338923222	46.257820
09817	14754126	-13.287693	0.895830	18.743252	0.136634	-4.492804	0.628877	39.978640047	116.338923212	46.259814
09818	14754151	-13.102231	0.935903	17.983887	0.113899	-4.535620	0.609732	39.978640026	116.338923203	46.261886
09819	14754176	-12.847733	0.939449	17.053926	0.103455	-4.562447	0.596564	39.978640006	116.338923193	46.264019
09820	14754201	-12.537687	1.007997	16.035173	0.119433	-4.581550	0.582965	39.978639986	116.338923184	46.266204
09821	14754226	-12.234868	1.076347	15.053485	0.141726	-4.583625	0.569092	39.978639967	116.338923175	46.255110
09822	14754251	-12.000922	1.187138	14.117190	0.159340	-4.567346	0.562272	39.978639948	116.338923166	46.257375
09823	14754276	-11.860902	1.314228	13.270003	0.175936	-4.536902	0.553569	39.978639930	116.338923157	46.259672
09824	14754301	-11.818835	1.463044	12.481453	0.183625	-4.502426	0.559840	39.978639912	116.338923148	46.261996
09825	14754326	-11.746626	1.604750	11.780825	0.185833	-4.454454	0.580719	39.978639895	116.338923139	46.264313
09826	14754351	-11.732679	1.659376	11.160828	0.174078	-4.401107	0.613234	39.978639879	116.338923130	46.266675
09827	14754376	-11.865037	1.764704	10.634144	0.157059	-4.344888	0.679875	39.978639863	116.338923122	46.269049
09828	14754401	-11.964248	1.906952	10.138350	0.144153	-4.282756	0.745039	39.978639848	116.338923113	46.271431
09829	14754426	-12.037344	2.093117	9.702436	0.130247	-4.222804	0.812004	39.978639834	116.338923105	46.287316
09830	14754451	-12.203086	2.102964	9.245758	0.109570	-4.155164	0.885857	39.978639820	116.338923098	46.289709
09831	14754476	-12.325890	2.415374	8.954246	0.108691	-4.080334	0.936605	39.978639807	116.338923090	46.292101
09832	14754501	-12.665646	2.521461	8.516250	0.122272	-3.995473	0.948620	39.978639794	116.338923082	46.294488
09833	14754526	-13.135732	2.839064	8.297377	0.184009	-3.900574	0.937889	39.978639782	116.338923075	46.296855
09834	14754551	-13.582776	2.840552	7.911370	0.248476	-3.802808	0.933900	39.978639771	116.338923068	46.299225
09835	14754576	-13.881332	2.860658	7.721187	0.298574	-3.715473	0.938751	39.978639761	116.338923061	46.301583
09836	14754601	-14.048949	2.871151	7.509625	0.325484	-3.636487	0.951525	39.978639752	116.338923055	46.303927
09837	14754626	-14.114511	2.876164	7.283446	0.345099	-3.551596	0.982126	39.978639743	116.338923049	46.294582
09838	14754651	-14.225673	2.822115	7.019764	0.351371	-3.465053	1.016067	39.978639735	116.338923043	46.296885
09839	14754676	-14.329658	2.867096	6.766899	0.334866	-3.370350	1.065390	39.978639728	116.338923037	46.299166
09840	14754701	-14.502374	2.905611	6.438332	0.303412	-3.264011	1.123047	39.978639721	116.338923032	46.301423
09841	14754726	-14.723270	2.854944	6.000258	0.250354	-3.162899	1.188395	39.978639716	116.338923027	46.303638
09844	14754751	-14.901150	2.844514	5.517153	0.186217	-3.053842	1.255318	39.978639711	116.338923022	46.305837
09845	14754776	-15.071998	2.744969	4.884630	0.124891	-2.938547	1.322854	39.978639707	116.338923018	46.308000
09846	14754801	-15.261966	2.572970	4.138841	0.062896	-2.817091	1.384703	39.978639705	116.338923014	46.310123
09847	14754826	-15.357254	2.283715	3.468477	0.039891	-2.678667	1.431671	39.978638695	116.338923448	46.223639
09848	14754851	-15.677299	1.727608	2.717219	0.013492	-2.529804	1.458589	39.978638684	116.338923449	46.224963
09849	14754876	-15.779315	1.527770	2.099132	0.048146	-2.367430	1.474863	39.978638674	116.338923449	46.226235
09850	14754901	-16.223350	0.812539	1.206112	0.135061	-2.190307	1.487249	39.978638665	116.338923450	46.227451
09851	14754926	-16.844269	0.377276	0.562831	0.187789	-1.985257	1.482762	39.978638656	116.338923451	46.228575
09852	14754951	-17.621850	-0.127786	-0.153912	0.268942	-1.752241	1.491884	39.978638649	116.338923452	46.229659
09853	14754976	-18.118739	-0.817551	-0.431710	0.385832	-1.503146	1.490887	39.978638643	116.338923453	46.230671
09854	14755001	-17.995523	-0.971248	-0.224385	0.542904	-1.260166	1.461278	39.978638638	116.338923455	46.231609
09855	14755026	-18.146493	-1.081655	-0.503030	0.680151	-1.037864	1.419477	39.978638633	116.338923456	46.251364
09856	14755051	-18.387551	-1.004296	-0.589303	0.755753	-0.810958	1.379887	39.978638630	116.338923457	46.252158
09857	14755076	-18.762840	-1.020033	-0.411340	0.849270	-0.596819	1.344198	39.978638628	116.338923458	46.252876
09858	14755101	-19.297103	-1.018306	-0.120106	0.922396	-0.402207	1.302845	39.978638627	116.338923460	46.253519
09859	14755126	-19.827093	-0.825580	0.280863	0.970390	-0.235358	1.282963	39.978638627	116.338923461	46.254096
09860	14755151	-20.366657	-0.673943	0.621699	0.965684	-0.088474	1.270578	39.978638628	116.338923463	46.254595
09861	14755176	-20.784292	-0.462196	0.748624	0.904793	0.036420	1.267404	39.978638630	116.338923464	46.255023
09862	14755201	-21.079787	-0.386618	0.457218	0.822645	0.164256	1.276024	39.978638633	116.338923466	46.255381
09863	14755226	-21.074416	-0.359900	-0.027039	0.738198	0.298368	1.281189	39.978638638	116.338923467	46.249028
09864	14755251	-20.868878	-0.360442	-0.648296	0.665614	0.431709	1.269380	39.978638644	116.338923469	46.249234
09865	14755276	-20.612074	-0.382437	-1.399997	0.588478	0.569861	1.246522	39.978638651	116.338923471	46.249359
09866	14755301	-20.426986	-0.449942	-2.134587	0.529236	0.707590	1.214033	39.978638659	116.338923473	46.249400
09867	14755326	-20.130472	-0.708555	-2.922988	0.455612	0.849955	1.175312	39.978638668	116.338923474	46.249329
09868	14755351	-19.863993	-0.874878	-3.735037	0.378981	0.996394	1.133489	39.978638678	116.338923476	46.249187
09869	14755376	-19.635342	-1.246785	-4.424028	0.301963	1.143324	1.091226	39.978638689	116.338923478	46.248946
09870	14755401	-19.327983	-1.634716	-5.255363	0.291743	1.288175	1.036557	39.978638702	116.338923480	46.248602
09871	14755426	-19.162299	-2.216352	-6.157984	0.359205	1.429231	0.975687	39.978638715	116.338923482	46.285648
09872	14755451	-18.901329	-2.299845	-5.881132	0.294283	1.538917	0.921937	39.978638730	116.338923483	46.285099
09873	14755476	-18.876902	-2.531438	-5.850914	0.249301	1.586984	0.891607	39.978638745	116.338923485	46.284442
09874	14755501	-18.977453	-3.089177	-5.730530	0.177248	1.613352	0.849592	39.978638762	116.338923487	46.283676
09875	14755526	-18.907518	-3.510377	-5.803306	0.243373	1.596942	0.806159	39.978638779	116.338923488	46.282805
09876	14755551	-19.012717	-3.822168	-5.177855	0.192237	1.542192	0.750819	39.978638798	116.338923489	46.281827
09877	14755576	-18.788417	-3.499235	-4.342125	0.086691	1.441694	0.717691	39.978638818	116.338923490	46.280747
09878	14755601	-18.961038	-4.003275	-3.922149	0.025454	1.330913	0.669067	39.978638839	116.338923490	46.279571
09879	14755626	-18.694154	-3.725985	-3.002953	-0.024012	1.221233	0.598477	39.978638860	116.338923491	46.280470
09880	14755651	-18.580235	-3.800483	-2.244855	-0.020404	1.115294	0.524861	39.978638883	116.338923491	46.279117
09881	14755676	-18.224566	-3.562915	-1.021094	-0.077945	1.027193	0.453350	39.978638907	116.338923491	46.277684
09882	14755701	-17.923260	-3.535663	-0.219968	-0.085786	0.956695	0.402922	39.978638932	116.338923491	46.276177
09883	14755726	-17.582792	-3.474008	0.940623	-0.078638	0.913255	0.336023	39.978638958	116.338923490	46.274639
09884	14755751	-17.226760	-3.208483	2.042034	-0.058278	0.894000	0.270765	39.978638985	116.338923490	46.273007
09885	14755776	-16.905193	-2.163994	2.873237	-0.021967	0.884369	0.216769	39.978639012	116.338923489	46.271322
09886	14755801	-20.444199	14.718353	-18.505631	-0.596220	1.497113	0.792748	39.978639041	116.338923488	46.269527
09887	14755826	10.617547	5.409674	-26.238844	-3.618167	2.930398	1.331758	39.978639068	116.338923491	46.286900
09888	14755851	10.424326	1.625662	5.099890	-3.350352	2.653473	0.623900	39.978639096	116.338923492	46.284796
09889	14755876	-5.233338	-1.490082	16.547446	-1.653539	1.546007	-0.349465	39.978639125	116.338923492	46.282698
09890	14755901	-13.019822	4.650991	10.235870	-1.527722	1.113264	-0.721007	39.978639154	116.338923493	46.280622
09891	14755926	-7.665872	5.772647	10.272292	-2.548936	0.952161	-0.758053	39.978639185	116.338923495	46.278579
09892	14755951	-1.033337	6.022084	12.063095	-3.617836	0.548770	-0.894726	39.978639215	116.338923496	46.276518
09893	14755976	4.266523	6.744088	8.362774	-4.244860	0.129532	-1.055681	39.978639244	116.338923498	46.274461
09894	14756001	8.721389	7.119492	1.073938	-4.136064	0.038085	-1.024178	39.978639273	116.338923501	46.272376
09895	14756026	10.546930	4.074953	-1.173666	-3.337812	0.152790	-0.906765	39.978639301	116.338923503	46.262810
09896	14756051	13.476108	-0.251374	1.112585	-2.561732	0.110455	-0.928414	39.978639329	116.338923506	46.260602
09897	14756076	11.644293	-4.600957	-2.636814	-1.195788	0.764228	-1.128548	39.978639356	116.338923509	46.258328
09898	14756101	10.986957	-10.700186	0.017448	0.745042	3.224481	-0.692902	39.978639383	116.338923511	46.255983
09899	14756126	19.603383	-17.038099	16.564913	0.068814	5.328826	0.129005	39.978639409	116.338923510	46.253774
09900	14756151	10.806319	-15.717923	10.825091	-1.803296	5.737170	0.257572	39.978639434	116.338923510	46.251439
09901	14756176	-0.221855	-15.740184	-6.108397	-1.942110	6.088726	0.158562	39.978639458	116.338923509	46.249056
09902	14756201	-7.433129	-20.285199	-5.378994	-1.038708	6.479064	-0.263634	39.978639483	116.338923506	46.246574
09903	14756226	-11.116737	-18.934797	7.150385	-0.621212	6.172724	-0.750843	39.978639511	116.338923502	46.257849
09904	14756251	-15.118126	-14.585455	14.252304	-0.525288	5.475275	-0.932847	39.978639537	116.338923496	46.255331
09905	14756276	-17.919395	-12.197771	20.878683	-0.307659	4.871065	-0.856621	39.978639564	116.338923490	46.252870
09906	14756301	-18.162111	-10.900384	25.917789	-0.073077	4.402906	-0.671159	39.978639592	116.338923483	46.250503
09907	14756326	-17.635963	-10.553669	28.499231	0.057055	4.110103	-0.483160	39.978639621	116.338923476	46.248413
09908	14756351	-18.481680	-7.827603	30.017092	0.282444	4.011603	-0.275294	39.978639650	116.338923467	46.246299
09909	14756376	-18.866504	-4.944396	32.065103	0.380877	3.849730	-0.122214	39.978639681	116.338923458	46.244331
09910	14756401	-16.957827	-1.916835	28.858219	0.116325	3.589981	-0.060149	39.978639712	116.338923449	46.242506
09911	14756426	-13.496543	-0.646975	22.210647	-0.112898	3.447783	-0.046025	39.978639743	116.338923441	46.248331
09912	14756451	-9.887557	0.690012	16.551595	-0.113228	3.455034	-0.106874	39.978639776	116.338923431	46.246691
09913	14756476	-6.867751	1.970155	13.133736	-0.089649	3.457239	-0.130281	39.978639808	116.338923422	46.245089
09914	14756501	-4.234675	3.044042	11.587136	-0.033194	3.385744	-0.078108	39.978639841	116.338923413	46.243509
09915	14756526	-2.328198	3.738293	10.624646	0.114495	3.336700	0.010920	39.978639873	116.338923405	46.241867
09916	14756551	-1.933708	4.363488	12.332848	0.231294	3.294203	0.138846	39.978639906	116.338923396	46.240310
09917	14756576	-2.265510	5.354421	14.483876	0.344425	3.244001	0.289083	39.978639939	116.338923388	46.238776
09918	14756601	-6.090801	5.227281	18.839663	0.182774	3.254076	0.428861	39.978639972	116.338923380	46.237288
09919	14756626	-10.424110	5.021161	23.453683	0.012848	3.126700	0.433734	39.978640006	116.338923373	46.222923
09920	14756651	-12.586861	4.705752	23.062871	-0.229218	2.993515	0.351321	39.978640039	116.338923366	46.221603
09921	14756676	-12.702991	3.922136	21.611389	-0.457423	2.907965	0.252617	39.978640073	116.338923359	46.220376
09922	14756701	-11.703630	2.831729	19.493827	-0.512880	2.776557	0.170882	39.978640107	116.338923353	46.219230
09923	14756726	-9.001666	3.832617	18.294928	-0.504323	2.638270	0.171982	39.978640142	116.338923346	46.218096
09924	14756751	-8.962188	7.079509	20.072614	-0.405667	2.436445	0.409075	39.978640176	116.338923340	46.217089
09925	14756776	-15.860878	5.037743	27.586625	-0.565461	2.253822	0.564727	39.978640211	116.338923335	46.216184
09926	14756801	-17.685437	5.207060	28.584294	-0.421520	1.866405	0.503713	39.978640247	116.338923330	46.215416
09927	14756826	-14.394936	6.198337	24.637244	-0.857990	1.566793	0.395035	39.978640284	116.338923325	46.206557
09928	14756851	-12.408653	5.097820	22.326341	-1.522154	1.337625	0.224716	39.978640320	116.338923321	46.206010
09929	14756876	-10.050016	2.114611	21.054589	-1.987244	1.138863	0.084576	39.978640357	116.338923317	46.205552
09930	14756901	-6.337963	-1.750793	17.780120	-2.401224	0.975764	0.040449	39.978640394	116.338923313	46.205164
09931	14756926	-3.669127	-4.725614	13.423417	-2.500423	0.964594	-0.003767	39.978640430	116.338923308	46.204701
09932	14756951	-3.344883	-7.095540	9.144810	-1.841388	1.090057	-0.044715	39.978640467	116.338923303	46.204367
09933	14756976	-3.898185	-9.615320	8.592943	-0.870114	1.190036	-0.188734	39.978640504	116.338923298	46.204033
09934	14757001	-5.119686	-8.474190	10.710817	-0.151007	1.087369	-0.379402	39.978640541	116.338923292	46.203704
09935	14757026	-5.571700	-6.070073	12.448553	0.143573	0.864673	-0.412351	39.978640578	116.338923286	46.207605
09936	14757051	-4.525463	-3.853821	12.957641	0.064161	0.675798	-0.252414	39.978640615	116.338923279	46.207322
09937	14757076	-3.327708	-2.288696	13.241546	-0.160156	0.574838	0.023532	39.978640652	116.338923272	46.207065
09938	14757101	-2.696382	-1.945678	13.992454	-0.300206	0.543340	0.263220	39.978640689	116.338923265	46.206833
09939	14757126	-5.070175	-0.703388	14.801713	-0.152718	0.542566	0.337324	39.978640726	116.338923259	46.206652
09940	14757151	-6.330196	-0.118210	15.350950	0.005133	0.500737	0.292707	39.978640763	116.338923252	46.206492
09941	14757176	-5.973242	1.070477	14.925294	-0.139132	0.390992	0.201169	39.978640800	116.338923244	46.206372
09942	14757201	-4.667939	1.742753	13.583092	-0.458412	0.301828	0.167948	39.978640838	116.338923238	46.206286
09943	14757226	-2.832613	1.444901	11.909240	-0.726098	0.296871	0.134192	39.978640874	116.338923231	46.210098
09946	14757251	-1.796827	0.740593	10.055458	-0.745210	0.352755	0.104858	39.978640911	116.338923224	46.210045
09947	14757276	-1.710448	-0.002905	8.721106	-0.574225	0.448075	0.041801	39.978640948	116.338923218	46.209990
09948	14757301	-2.134747	-0.359838	8.501541	-0.400887	0.510323	-0.024652	39.978640986	116.338923211	46.209928
09949	14757326	-3.199998	-0.532775	9.524973	-0.275660	0.501405	-0.064315	39.978637008	116.338923521	46.239018
09950	14757351	-3.930973	-1.153762	11.048612	-0.191718	0.422780	-0.094593	39.978637014	116.338923516	46.240090
09951	14757376	-4.139366	-1.373175	11.530657	-0.139967	0.323427	-0.110751	39.978637019	116.338923511	46.241174
09952	14757401	-3.477207	-1.401246	11.234137	-0.143892	0.265297	-0.097495	39.978637024	116.338923506	46.242271
09953	14757426	-2.560468	-1.203992	10.695073	-0.220774	0.251202	-0.048614	39.978637028	116.338923500	46.227187
09954	14757451	-1.956421	-0.848322	10.184368	-0.274316	0.275414	0.015101	39.978637033	116.338923495	46.228285
09955	14757476	-1.974103	-0.604048	9.687596	-0.270219	0.309354	0.054766	39.978637038	116.338923490	46.229382
09956	14757501	-2.227820	-0.327365	9.343744	-0.199187	0.343557	0.041896	39.978637042	116.338923485	46.230475
09957	14757526	-2.433775	0.107695	9.313148	-0.146315	0.351742	0.017647	39.978637046	116.338923479	46.231559
09958	14757551	-2.595210	0.340887	9.517414	-0.143011	0.349833	0.005221	39.978637050	116.338923474	46.232646
09959	14757576	-2.569542	0.157392	9.615258	-0.168824	0.353159	-0.010240	39.978637054	116.338923469	46.233731
09960	14757601	-2.499477	0.195628	9.729840	-0.174356	0.356972	-0.029249	39.978637058	116.338923464	46.234815
09961	14757626	-2.491624	-0.249939	9.609976	-0.145917	0.373578	-0.034043	39.978637061	116.338923459	46.233173
09962	14757651	-2.630366	0.002098	9.602757	-0.111938	0.389859	-0.039245	39.978637065	116.338923454	46.234252
09963	14757676	-2.863713	-0.023307	9.747570	-0.082780	0.394528	-0.040086	39.978637068	116.338923449	46.235331
09964	14757701	-2.880977	-0.189301	9.967868	-0.094275	0.388618	-0.043616	39.978637071	116.338923444	46.236410
09965	14757726	-3.074410	-0.292804	10.068554	-0.071234	0.368929	-0.044809	39.978637074	116.338923439	46.237498
09966	14757751	-3.067785	-0.433351	10.094659	-0.060490	0.359018	-0.036015	39.978637077	116.338923434	46.238582
09967	14757776	-2.895022	-0.185503	10.054360	-0.060280	0.351012	-0.028175	39.978637080	116.338923429	46.239668
09968	14757801	-2.872757	-0.215383	9.942504	-0.077417	0.349255	0.006786	39.978637082	116.338923424	46.240756
09969	14757826	-2.690710	-0.193306	9.949280	-0.075860	0.345331	0.017695	39.978637085	116.338923419	46.241294
09970	14757851	-3.039038	-0.647369	9.487221	-0.044927	0.331886	0.034268	39.978637087	116.338923414	46.242382
09971	14757876	-2.956404	-0.398174	10.238523	-0.081354	0.343934	0.021395	39.978637089	116.338923410	46.243472
09972	14757901	-2.822329	-0.383707	10.055077	-0.063749	0.343214	0.016971	39.978637091	116.338923405	46.244563
09973	14757926	-2.693327	-0.544515	9.640798	-0.036779	0.355132	0.010604	39.978637093	116.338923400	46.245654
09974	14757951	-2.610193	-0.913369	9.244440	0.007419	0.361623	-0.002308	39.978637094	116.338923395	46.246744
09975	14757976	-2.371408	-0.636813	9.278784	0.034682	0.378360	-0.008160	39.978637096	116.338923390	46.247831
09976	14758001	-2.385894	-0.597232	9.016794	0.108233	0.385377	-0.017099	39.978637097	116.338923385	46.248912
09977	14758026	-2.592574	-0.510756	9.068862	0.168358	0.389400	-0.036471	39.978637098	116.338923381	46.241690
09978	14758051	-2.591297	-0.134770	9.342845	0.179292	0.386617	-0.040376	39.978637099	116.338923376	46.242757
09979	14758076	-2.246814	-0.104740	9.385705	0.126007	0.364959	-0.026685	39.978637100	116.338923371	46.243822
09980	14758101	-2.150697	-0.665431	9.173685	0.115165	0.371020	-0.027339	39.978637101	116.338923366	46.244881
09981	14758126	-2.107695	-0.776178	8.989729	0.144222	0.408374	-0.045414	39.978637102	116.338923361	46.245929
09982	14758151	-2.004798	-0.590842	8.750926	0.214860	0.440422	-0.064713	39.978637102	116.338923356	46.246975
09983	14758176	-1.956726	-0.245870	8.485984	0.238182	0.450330	-0.082983	39.978637102	116.338923352	46.248013
09984	14758201	-1.854497	-0.093129	8.491858	0.224589	0.443381	-0.088896	39.978637102	116.338923347	46.249040
09985	14758226	-1.799624	-0.060497	8.603763	0.205332	0.442660	-0.072339	39.978637102	116.338923342	46.260963
09986	14758251	-1.878706	-0.256225	8.686912	0.217953	0.462291	-0.067259	39.978637102	116.338923337	46.261978
09987	14758276	-2.062537	-0.193845	8.930496	0.219020	0.491950	-0.078796	39.978637101	116.338923333	46.262985
09988	14758301	-2.225205	0.109670	9.127014	0.216343	0.504813	-0.095603	39.978637101	116.338923328	46.263986
09989	14758326	-2.277241	0.438317	9.199933	0.200178	0.511991	-0.094232	39.978637100	116.338923323	46.264988
09990	14758351	-2.411016	0.701896	9.381655	0.152400	0.511108	-0.085852	39.978637099	116.338923319	46.265978
09991	14758376	-2.379679	0.732962	9.545440	0.090674	0.505890	-0.065999	39.978637098	116.338923314	46.266965
09992	14758401	-2.289968	0.650832	9.421455	0.037867	0.515188	-0.065355	39.978637096	116.338923310	46.267949
09993	14758426	-2.241706	0.547880	9.351989	-0.004330	0.532976	-0.073585	39.978637095	116.338923305	46.252821
09994	14758451	-2.826802	0.549694	9.655042	-0.002967	0.555967	-0.094026	39.978637094	116.338923301	46.253786
09995	14758476	-3.267316	0.431820	9.899195	0.014167	0.564680	-0.122891	39.978637092	116.338923297	46.254750
09996	14758501	-3.397799	0.630221	9.845212	0.017324	0.565167	-0.159156	39.978637090	116.338923293	46.255717
09997	14758526	-3.233642	0.677081	9.804166	-0.009669	0.561512	-0.185762	39.978637088	116.338923289	46.256687
09998	14758551	-3.042962	0.622977	9.572612	-0.017759	0.565709	-0.224681	39.978637086	116.338923285	46.257655
09999	14758576	-3.123991	0.477935	9.356534	0.001347	0.586970	-0.246705	39.978637083	116.338923281	46.258621
10000	14758601	-3.220515	-0.054454	9.651461	0.040181	0.608058	-0.286408	39.978637081	116.338923277	46.259586
10001	14758626	-3.587852	-0.158307	9.854474	0.122403	0.614382	-0.337346	39.978637078	116.338923274	46.263601
10002	14758651	-3.418505	-0.260428	9.867458	0.171109	0.626743	-0.386575	39.978637075	116.338923270	46.264572
10003	14758676	-3.179702	-0.163864	9.802790	0.182496	0.626411	-0.423636	39.978637072	116.338923266	46.265545
10004	14758701	-3.020911	-0.164700	9.663110	0.196670	0.634094	-0.443673	39.978637069	116.338923262	46.266517
10005	14758726	-2.699061	-0.077261	9.442733	0.210817	0.645578	-0.443991	39.978637066	116.338923259	46.267480
10006	14758751	-2.693338	0.019179	9.429828	0.211997	0.664577	-0.431980	39.978637062	116.338923255	46.268448
10007	14758776	-3.445827	0.075033	10.016440	0.213330	0.679006	-0.403054	39.978637059	116.338923252	46.269416
10008	14758801	-4.046954	-0.096336	10.544966	0.212225	0.673196	-0.385688	39.978637055	116.338923248	46.270389
10009	14758826	-3.633145	-0.039616	10.402928	0.145829	0.655233	-0.371587	39.978637051	116.338923244	46.264721
10010	14758851	-3.138668	0.008783	9.986918	0.070271	0.659007	-0.347890	39.978637047	116.338923241	46.265698
10011	14758876	-2.866532	-0.201641	9.599239	0.049688	0.693324	-0.323047	39.978637043	116.338923237	46.266675
10012	14758901	-2.965564	-0.403245	9.426872	0.073124	0.746708	-0.301145	39.978637039	116.338923234	46.267651
10013	14758926	-3.332251	-0.563414	9.949141	0.132675	0.791230	-0.289597	39.978637034	116.338923231	46.268627
10014	14758951	-3.645925	-0.523491	10.288284	0.162412	0.816707	-0.280003	39.978637030	116.338923227	46.269605
10015	14758976	-3.440187	-0.263469	10.278590	0.120422	0.832635	-0.263114	39.978637025	116.338923224	46.270588
10016	14759001	-3.281580	-0.374495	10.155902	0.056735	0.847201	-0.229713	39.978637020	116.338923220	46.271574
10017	14759026	-3.241037	-0.399449	9.869803	0.031933	0.878096	-0.217554	39.978637015	116.338923217	46.268162
10018	14759051	-3.309591	-0.511565	9.684457	0.049253	0.925528	-0.205576	39.978637009	116.338923213	46.269147
10019	14759076	-3.298280	-0.303842	9.717059	0.080618	0.968260	-0.190724	39.978637004	116.338923210	46.270132
10020	14759101	-3.139359	-0.153572	9.615153	0.072818	1.008723	-0.172025	39.978636998	116.338923207	46.271117
10021	14759126	-3.056593	-0.213994	9.573847	0.039037	1.041508	-0.165123	39.978636992	116.338923203	46.272098
10022	14759151	-3.225777	-0.125369	9.467585	0.030498	1.072438	-0.168987	39.978636986	116.338923200	46.273080
10023	14759176	-3.246252	-0.226710	9.335455	0.057940	1.106567	-0.175373	39.978636980	116.338923197	46.274060
10024	14759201	-2.986438	-0.062300	9.139226	0.081342	1.131148	-0.192456	39.978636974	116.338923193	46.275038
10025	14759226	-2.853834	-0.162236	8.992678	0.076313	1.162447	-0.205533	39.978636967	116.338923190	46.273689
10026	14759251	-3.110229	-0.169024	9.003206	0.104614	1.181281	-0.232440	39.978636961	116.338923187	46.274655
10027	14759276	-3.391548	-0.240660	9.024061	0.147469	1.197200	-0.242700	39.978636954	116.338923184	46.275617
10028	14759301	-3.420659	-0.116106	9.193384	0.161037	1.196452	-0.257166	39.978636947	116.338923181	46.276576
10029	14759326	-3.335058	-0.033407	9.152478	0.143926	1.185711	-0.259720	39.978636940	116.338923177	46.277535
10030	14759351	-3.412122	-0.112800	9.057746	0.117771	1.171458	-0.252918	39.978636932	116.338923174	46.278489
10031	14759376	-3.556997	-0.248881	9.031922	0.139062	1.154529	-0.259137	39.978636925	116.338923171	46.279439
10032	14759401	-3.540120	-0.219813	8.960155	0.155692	1.141820	-0.255354	39.978636917	116.338923168	46.280386
10033	14759426	-3.645012	-0.127918	9.056257	0.145564	1.110693	-0.252596	39.978636910	116.338923165	46.276592
10034	14759451	-3.748588	-0.148834	9.123929	0.120634	1.081621	-0.244950	39.978636903	116.338923162	46.277530
10035	14759476	-3.842321	-0.151591	9.131877	0.106511	1.046665	-0.240909	39.978636895	116.338923159	46.278467
10036	14759501	-3.855953	-0.133374	9.054742	0.093038	1.006049	-0.231972	39.978636886	116.338923156	46.279401
10037	14759526	-3.872252	-0.109796	9.004257	0.083351	0.969999	-0.229582	39.978636878	116.338923153	46.280334
10038	14759551	-3.925995	-0.117864	8.968267	0.080872	0.930183	-0.220814	39.978636870	116.338923150	46.281265
10039	14759576	-3.918983	-0.202906	8.880182	0.070883	0.894124	-0.222987	39.978636861	116.338923147	46.282193
10040	14759601	-4.014090	-0.123242	8.933619	0.069371	0.859240	-0.225480	39.978636852	116.338923144	46.283119
10041	14759626	-4.011200	-0.068096	8.913823	0.072497	0.822374	-0.221674	39.978636844	116.338923141	46.279220
10042	14759651	-3.910772	-0.151991	8.905697	0.090799	0.773949	-0.225362	39.978636835	116.338923138	46.280138
10043	14759676	-3.834071	0.016540	8.695966	0.071926	0.750762	-0.220849	39.978636826	116.338923136	46.281052
10044	14759701	-3.848501	0.011619	8.931516	0.040458	0.716168	-0.220132	39.978636817	116.338923133	46.281964
10045	14759726	-4.016617	0.000778	8.903414	0.044987	0.688262	-0.219338	39.978636808	116.338923130	46.282873
10048	14759751	-4.044215	0.010286	8.926041	0.045680	0.659660	-0.224181	39.978636798	116.338923128	46.283779
10049	14759776	-3.965687	0.039085	8.948788	0.045101	0.633450	-0.225480	39.978636789	116.338923125	46.284684
10050	14759801	-4.009697	-0.025290	8.874056	0.030425	0.607951	-0.230521	39.978636779	116.338923122	46.285585
10051	14759826	-4.038735	-0.070690	8.867205	0.034019	0.589116	-0.231728	39.978634492	116.338924163	46.249601
10052	14759851	-4.025233	-0.227732	8.902638	0.030483	0.578290	-0.230059	39.978634467	116.338924167	46.250378
10053	14759876	-4.163326	-0.258307	9.004817	0.041910	0.559005	-0.234965	39.978634441	116.338924172	46.251151
10054	14759901	-4.372419	-0.500058	9.256736	0.062008	0.535783	-0.240308	39.978634416	116.338924177	46.251923
10055	14759926	-4.345965	-0.432364	9.173082	0.082073	0.512451	-0.233369	39.978634390	116.338924182	46.252698
10056	14759951	-4.162351	-0.348269	9.118926	0.061892	0.499406	-0.214733	39.978634364	116.338924187	46.253466
10057	14759976	-4.030976	-0.335105	8.914120	0.032040	0.490245	-0.186048	39.978634338	116.338924191	46.254231
10058	14760001	-3.872997	-0.417103	9.129510	0.019930	0.484411	-0.165674	39.978634311	116.338924196	46.254992
10059	14760026	-3.996811	-0.378154	9.012507	0.023048	0.468238	-0.157943	39.978634285	116.338924201	46.258788
10060	14760051	-4.069779	-0.309397	9.039278	0.005844	0.468093	-0.136310	39.978634258	116.338924206	46.259543
10061	14760076	-4.164981	-0.254500	9.088608	0.003152	0.470725	-0.121571	39.978634231	116.338924211	46.260296
10062	14760101	-4.121923	-0.229352	8.974302	-0.004362	0.475535	-0.109552	39.978634203	116.338924216	46.261045
10063	14760126	-4.052760	-0.195975	8.897260	-0.014821	0.482701	-0.112395	39.978634176	116.338924222	46.261788
10064	14760151	-3.979619	-0.264486	8.810613	-0.000113	0.498115	-0.114229	39.978634148	116.338924227	46.262529
10065	14760176	-4.048553	-0.217856	8.861283	0.014733	0.511642	-0.119631	39.978634121	116.338924232	46.263265
10066	14760201	-3.920451	-0.274294	8.847861	0.023100	0.524242	-0.128829	39.978634093	116.338924237	46.263996
10067	14760226	-3.983910	-0.227764	8.927799	0.029540	0.545485	-0.133869	39.978634064	116.338924243	46.257622
10068	14760251	-3.897789	-0.287725	9.137891	0.055529	0.547029	-0.134289	39.978634035	116.338924248	46.258340
10069	14760276	-3.895435	-0.195732	8.808226	0.052965	0.561388	-0.136377	39.978634007	116.338924253	46.259053
10070	14760301	-4.144034	-0.248643	8.994182	0.031525	0.593591	-0.140281	39.978633978	116.338924259	46.259762
10071	14760326	-3.989288	-0.065145	8.896386	0.068793	0.612779	-0.145821	39.978633949	116.338924264	46.260466
10072	14760351	-3.788644	-0.329243	8.443239	0.084485	0.649470	-0.163169	39.978633920	116.338924270	46.261165
10073	14760376	-4.118833	-0.050743	8.345616	0.071469	0.705539	-0.161578	39.978633890	116.338924275	46.261856
10074	14760401	-3.315680	-0.326949	9.652818	0.068563	0.734076	-0.153716	39.978633861	116.338924281	46.262541
10075	14760426	-3.329681	-0.384562	8.894545	0.142653	0.709264	-0.179136	39.978633831	116.338924287	46.271546
10076	14760451	-3.663710	-0.038367	8.300580	0.124425	0.755726	-0.158484	39.978633801	116.338924292	46.272222
10077	14760476	-3.872106	-0.341482	8.775845	0.084049	0.798537	-0.160110	39.978633771	116.338924298	46.272890
10078	14760501	-3.989872	-0.219959	9.066195	0.114071	0.835720	-0.153098	39.978633740	116.338924304	46.273553
10079	14760526	-4.010392	-0.196701	9.031649	0.108241	0.886327	-0.150090	39.978633709	116.338924310	46.274220
10080	14760551	-4.191561	-0.050591	8.708797	0.078249	0.953837	-0.133026	39.978633678	116.338924315	46.274874
10081	14760576	-3.843224	-0.365247	8.885807	0.140591	1.015345	-0.127260	39.978633647	116.338924321	46.275522
10082	14760601	-2.995052	-0.408666	9.037008	0.189655	1.010257	-0.148958	39.978633616	116.338924327	46.276164
10083	14760626	-3.485379	0.190698	8.163159	0.167690	1.067269	-0.143062	39.978633584	116.338924333	46.273086
10084	14760651	-3.623269	-0.076823	8.659652	0.169545	1.145354	-0.138122	39.978633552	116.338924339	46.273705
10085	14760676	-3.603537	-0.141184	8.948280	0.177519	1.213790	-0.152573	39.978633520	116.338924345	46.274317
10086	14760701	-3.744031	-0.135138	8.837799	0.211662	1.270910	-0.152990	39.978633488	116.338924352	46.274921
10087	14760726	-4.632085	-0.191544	7.770372	0.223075	1.339606	-0.137775	39.978633456	116.338924358	46.275520
10088	14760751	-3.780758	-0.374888	9.565522	0.183192	1.361211	-0.113188	39.978633423	116.338924364	46.276112
10089	14760776	-3.819199	-0.245774	8.978747	0.229523	1.253075	-0.141881	39.978633390	116.338924370	46.276699
10090	14760801	-4.345891	0.078307	7.731253	0.191324	1.238747	-0.121610	39.978633357	116.338924377	46.277279
10091	14760826	-4.889107	-0.465614	8.176279	0.213529	1.189854	-0.116678	39.978633324	116.338924383	46.285289
10092	14760851	-5.684981	-0.267036	8.465455	0.213342	1.083662	-0.116116	39.978633291	116.338924389	46.285864
10093	14760876	-6.841260	0.139393	8.783758	0.148137	0.982201	-0.083564	39.978633257	116.338924396	46.286442
10094	14760901	-5.646964	-0.269510	9.879502	0.167403	0.810012	-0.080538	39.978633223	116.338924402	46.287027
10095	14760926	-5.177186	0.254518	8.459072	0.158061	0.665388	-0.091709	39.978633189	116.338924409	46.287608
10096	14760951	-4.990433	0.254668	7.684800	0.100487	0.613159	-0.098246	39.978633155	116.338924415	46.288189
10097	14760976	-4.975276	0.255212	8.274286	0.074591	0.582446	-0.107498	39.978633121	116.338924422	46.288765
10098	14761001	-5.205053	0.223800	8.594685	0.064543	0.555676	-0.132035	39.978633087	116.338924429	46.289338
10099	14761026	-5.059367	-0.040611	8.628248	0.092426	0.569673	-0.143088	39.978633052	116.338924436	46.291227
10100	14761051	-3.928473	-0.433801	9.190613	0.160638	0.549954	-0.183895	39.978633017	116.338924443	46.291794
10101	14761076	-3.924665	0.027384	8.435012	0.186089	0.614056	-0.190873	39.978632982	116.338924450	46.292354
10102	14761101	-3.820796	-0.041577	8.805981	0.172347	0.734985	-0.164858	39.978632947	116.338924457	46.292907
10103	14761126	-3.752248	-0.452997	9.177322	0.192574	0.851824	-0.138773	39.978632911	116.338924464	46.293451
10104	14761151	-4.375795	-0.307440	8.920672	0.235680	1.001825	-0.098224	39.978632875	116.338924471	46.293991
10105	14761176	-3.500909	-0.842801	9.963748	0.274585	1.124058	-0.064957	39.978632839	116.338924478	46.294526
10106	14761201	-3.659824	-0.489653	9.045574	0.345004	1.212210	-0.046822	39.978632803	116.338924485	46.295056
10107	14761226	-3.939237	-0.385810	8.500168	0.367134	1.335197	-0.001144	39.978632767	116.338924492	46.302052
10108	14761251	-4.370625	-0.418585	8.464106	0.399863	1.438069	0.034779	39.978632730	116.338924499	46.302570
10109	14761276	-4.644667	-0.206598	8.784685	0.404619	1.488290	0.070684	39.978632693	116.338924506	46.303083
10110	14761301	-4.280051	-0.393668	9.176279	0.410666	1.444263	0.066823	39.978632656	116.338924514	46.303592
10111	14761326	-5.438118	0.054411	7.905040	0.427199	1.434123	0.067556	39.978632618	116.338924521	46.304100
10112	14761351	-5.898936	0.077771	8.275822	0.382704	1.438414	0.085005	39.978632581	116.338924528	46.304602
10113	14761376	-5.527095	-0.159915	8.880356	0.378114	1.373801	0.067507	39.978632543	116.338924535	46.305104
10114	14761401	-5.093783	0.051884	8.561071	0.371625	1.264895	0.035732	39.978632505	116.338924543	46.305604
10115	14761426	-5.368580	0.166338	7.770785	0.313051	1.232774	0.033163	39.978632467	116.338924550	46.308457
10116	14761451	-5.467449	0.014536	8.238459	0.290598	1.222101	0.030854	39.978632428	116.338924558	46.308951
10117	14761476	-5.233611	-0.171894	8.760988	0.291343	1.198137	0.014937	39.978632390	116.338924565	46.309442
10118	14761501	-5.355580	-0.144471	8.452270	0.294523	1.201544	0.003938	39.978632351	116.338924573	46.309930
10119	14761526	-5.114749	-0.156267	8.639845	0.313927	1.225174	0.009838	39.978632312	116.338924581	46.310415
10120	14761551	-4.716806	-0.248745	8.690440	0.309588	1.251293	0.019196	39.978632273	116.338924588	46.310896
10121	14761576	-4.810962	-0.057730	8.403622	0.302890	1.303790	0.030172	39.978632234	116.338924596	46.311372
10122	14761601	-4.813899	-0.139168	8.484505	0.315364	1.373256	0.041647	39.978632194	116.338924604	46.311843
10123	14761626	-4.091794	0.083139	8.605089	0.326243	1.447667	0.047106	39.978632154	116.338924612	46.317919
10124	14761651	-2.982005	-0.165613	8.150931	0.372629	1.585397	0.004022	39.978632114	116.338924619	46.318373
10125	14761676	-0.252680	-0.297072	4.560770	0.582943	2.151112	-0.157060	39.978632074	116.338924627	46.318798
10126	14761701	0.267302	0.870541	8.055301	1.179095	3.069453	-0.391675	39.978632033	116.338924635	46.319185
10127	14761726	-2.023347	0.865601	8.798810	1.315055	3.512688	-0.498210	39.978631992	116.338924643	46.319544
10128	14761751	-4.867835	-0.254187	6.678875	1.173236	3.624127	-0.459777	39.978631951	116.338924651	46.319887
10129	14761776	-7.154891	-1.442701	6.018396	1.169063	3.637946	-0.433923	39.978631909	116.338924659	46.320223
10130	14761801	-6.945849	-1.428192	7.111991	1.240120	3.721789	-0.470810	39.978631868	116.338924667	46.320558
10131	14761826	-4.252221	0.383316	7.703046	1.029883	3.812017	-0.492873	39.978631826	116.338924675	46.317299
10132	14761851	-3.513240	0.882047	8.087723	1.034726	3.969445	-0.522108	39.978631784	116.338924683	46.317610
10133	14761876	-3.305002	0.025529	7.798980	1.100528	4.239041	-0.643999	39.978631742	116.338924691	46.317905
10134	14761901	-3.409356	-0.012225	7.016566	1.247306	4.564577	-0.853852	39.978631700	116.338924699	46.318180
10135	14761926	-3.942136	2.060978	6.670919	1.352497	4.854629	-1.014544	39.978631657	116.338924707	46.318428
10136	14761951	-2.425263	2.547662	7.994770	1.231857	4.949308	-1.120982	39.978631614	116.338924715	46.318661
10137	14761976	0.745748	2.681207	7.497083	1.027942	5.033561	-1.221907	39.978631571	116.338924724	46.318859
10138	14762001	8.518458	3.424209	4.366631	0.563083	5.619134	-1.171082	39.978631527	116.338924733	46.318988
10139	14762026	9.079468	-0.907912	8.453528	-0.014875	6.660892	-0.782645	39.978631483	116.338924741	46.349124
10140	14762051	3.074210	-3.103662	11.537560	-0.371715	7.361229	-0.450406	39.978631438	116.338924749	46.349098
10141	14762076	-4.671172	-2.743054	12.941495	-0.576775	7.633058	-0.316935	39.978631392	116.338924757	46.349051
10142	14762101	-11.454429	-0.112692	17.896424	-0.381863	7.488196	-0.347968	39.978631346	116.338924765	46.349030
10143	14762126	-19.646552	1.218326	23.295433	0.366296	7.097951	-0.459355	39.978631299	116.338924774	46.349341
10144	14762151	-13.292455	0.828503	16.984848	0.994558	6.982929	-0.685644	39.978631252	116.338924783	46.349481
10145	14762176	-0.070169	0.504748	11.424069	1.161952	7.190641	-0.909970	39.978631204	116.338924791	46.349632
10146	14762201	3.677877	1.434466	16.760950	1.105798	7.281301	-1.052565	39.978631155	116.338924800	46.349742
10147	14762226	-0.758386	2.128785	19.739894	0.858281	7.565777	-1.148586	39.978631104	116.338924808	46.093919
10150	14762251	-2.758489	0.304918	14.430485	0.794617	8.058984	-1.309856	39.978631054	116.338924816	46.060476
10151	14762276	-4.929950	-0.320197	8.683673	0.936372	8.478754	-1.534711	39.978631002	116.338924825	46.027018
10152	14762301	-6.819897	0.788049	7.827381	0.907717	8.676348	-1.705637	39.978630951	116.338924833	45.993548
10153	14762326	-5.596304	1.311613	9.873187	0.968923	8.816978	-1.946229	39.978631092	116.338925019	45.923525
10154	14762351	-6.973105	1.872060	11.238367	1.252000	9.134051	-2.358401	39.978631065	116.338925030	45.923841
10155	14762376	-5.765096	8.666252	15.326240	1.216682	9.198207	-2.467529	39.978631037	116.338925041	45.924148
10156	14762401	-11.220972	0.630268	12.382259	0.759997	9.245766	-2.570627	39.978631009	116.338925053	45.924460
10157	14762426	-14.848639	-4.697616	9.778053	1.155067	9.586332	-2.940237	39.978630980	116.338925063	45.906576
10158	14762451	-6.887234	-2.266715	7.956308	1.671389	9.750243	-3.316130	39.978630951	116.338925074	45.906938
10159	14762476	-10.030610	1.245647	9.730589	2.121284	9.769927	-3.382404	39.978630921	116.338925085	45.907298
10160	14762501	-14.682979	11.641960	22.008500	1.267668	9.672382	-2.827798	39.978630891	116.338925097	45.907677
10161	14762526	-5.888991	10.841360	19.203394	0.158362	9.716170	-2.624897	39.978630857	116.338925111	45.908046
10162	14762551	-4.274075	10.496169	12.245786	-0.004171	10.015411	-2.983019	39.978630825	116.338925124	45.908394
10163	14762576	-11.136879	7.642132	10.809812	0.050767	10.022871	-3.224642	39.978630791	116.338925138	45.908721
10164	14762601	-12.093258	5.886240	16.651448	0.253193	9.864092	-3.528936	39.978630757	116.338925152	45.909052
10165	14762626	-11.273415	3.159898	21.395391	0.569538	9.642883	-3.786609	39.978630721	116.338925165	45.767778
10166	14762651	-11.787395	0.323815	29.971324	1.015281	9.399468	-4.068172	39.978630684	116.338925180	45.750809
10167	14762676	-10.425648	0.326528	30.922801	1.492033	8.959021	-4.246950	39.978630645	116.338925194	45.733835
10168	14762701	-10.145820	1.383261	22.596070	2.122559	8.812867	-4.236227	39.978630605	116.338925208	45.716850
10169	14762726	-6.554204	1.611490	17.814988	1.880648	8.885552	-4.102095	39.978630565	116.338925222	45.699781
10170	14762751	-0.904606	4.559282	21.182780	1.686203	8.612688	-4.031185	39.978630522	116.338925236	45.682713
10171	14762776	3.787545	7.116768	24.290491	2.068753	7.867278	-3.946759	39.978630478	116.338925250	45.665548
10172	14762801	9.443836	5.361030	16.417593	1.862931	7.160972	-3.926541	39.978630433	116.338925264	45.648252
10173	14762826	6.853357	0.761514	10.056975	0.309124	7.029904	-4.051078	39.978630389	116.338925278	46.516685
10174	14762851	-30.663083	6.769464	33.334472	-0.324834	6.966561	-3.812497	39.978630342	116.338925292	46.595419
10175	14762876	-72.204688	12.055699	52.648509	0.751872	5.968633	-2.760130	39.978630292	116.338925307	46.674322
10176	14762901	-79.598446	10.217840	60.527873	2.427699	4.447794	-1.611111	39.978630238	116.338925323	46.753510
10177	14762926	-67.429919	14.288247	61.541630	4.181442	2.434613	-0.729936	39.978630176	116.338925341	46.833194
10178	14762951	-48.045727	20.988339	59.101099	5.100860	0.253880	0.004506	39.978630113	116.338925359	46.912795
10179	14762976	-28.637573	23.782279	50.947112	4.788210	-1.311504	0.477632	39.978630046	116.338925378	46.992438
10180	14763001	-12.665973	23.834177	49.593691	4.744917	-1.334567	0.301002	39.978629976	116.338925399	47.072025
10181	14763026	-3.133269	24.975906	50.858853	5.529302	-0.386924	-0.570718	39.978629904	116.338925419	45.435616
10182	14763051	-2.617024	27.646872	51.447572	4.799237	0.301397	-1.009502	39.978629828	116.338925441	45.344227
10183	14763076	-5.775689	23.863131	46.295184	2.188239	0.041354	-0.810012	39.978629749	116.338925463	45.252689
10184	14763101	-7.535985	21.625004	36.832949	0.302026	-0.337108	-0.553975	39.978629667	116.338925487	45.161032
10185	14763126	-5.045225	21.443008	28.896882	-0.331724	-0.677237	-0.359906	39.978629585	116.338925511	45.069360
10186	14763151	-1.748604	20.597627	22.747279	-0.636056	-1.007216	-0.100011	39.978629500	116.338925536	44.977478
10187	14763176	0.490333	19.148822	19.024461	-0.885232	-1.278528	0.096518	39.978629413	116.338925562	44.885472
10188	14763201	2.050283	17.763635	17.456568	-1.006024	-1.499599	0.259723	39.978629325	116.338925588	44.793339
10189	14763226	2.633762	16.217995	16.770817	-0.960487	-1.706619	0.343664	39.978629236	116.338925615	46.283415
10190	14763251	1.840818	15.354434	15.780009	-0.873236	-1.897551	0.339999	39.978629146	116.338925643	46.296618
10191	14763276	0.741010	14.731737	14.855573	-0.834459	-2.100863	0.312058	39.978629055	116.338925672	46.309704
10192	14763301	-0.216471	13.935196	13.637453	-0.862047	-2.307235	0.260748	39.978628962	116.338925701	46.322683
10193	14763326	-0.919518	13.177467	12.446992	-0.897806	-2.430937	0.218405	39.978628870	116.338925731	46.335607
10194	14763351	-0.172347	11.705871	11.700933	-0.923391	-2.495030	0.247680	39.978628776	116.338925762	46.348392
10195	14763376	1.086624	9.877948	10.877452	-1.023278	-2.518297	0.361115	39.978628681	116.338925793	46.361080
10196	14763401	1.970130	8.581063	10.144066	-1.133696	-2.504858	0.516383	39.978628586	116.338925824	46.373670
10197	14763426	2.427674	7.449546	9.428498	-1.221563	-2.471098	0.688013	39.978628491	116.338925855	45.673767
10198	14763451	2.798267	6.890134	9.187270	-1.295279	-2.467344	0.842440	39.978628394	116.338925887	45.650881
10199	14763476	3.040389	6.473351	8.431409	-1.351476	-2.481462	0.989961	39.978628297	116.338925919	45.627896
10200	14763501	3.232038	5.703500	7.710473	-1.354385	-2.512616	1.147169	39.978628200	116.338925952	45.604812
10201	14763526	2.648544	4.620798	6.557887	-1.271422	-2.530761	1.234721	39.978628103	116.338925984	45.581647
10202	14763551	2.311788	4.075805	6.260087	-0.978228	-2.532219	1.286338	39.978628004	116.338926017	45.558380
10203	14763576	1.618882	3.701455	6.366572	-0.666426	-2.580698	1.286258	39.978627906	116.338926050	45.535028
10204	14763601	1.220405	3.715806	5.853907	-0.268587	-2.657873	1.317056	39.978627807	116.338926083	45.511595
10205	14763626	1.261635	3.571384	5.842823	0.187047	-2.751326	1.358983	39.978627708	116.338926116	46.105468
10206	14763651	0.924535	3.152443	6.654315	0.592280	-2.860183	1.379892	39.978627608	116.338926149	46.106117
10207	14763676	0.802249	3.173656	8.626327	0.867632	-2.994624	1.419060	39.978627508	116.338926182	46.106689
10208	14763701	0.704285	3.443001	10.527452	1.008487	-3.112707	1.480063	39.978627408	116.338926215	46.107184
10209	14763726	0.722136	3.614906	12.333539	1.035438	-3.180134	1.564134	39.978627306	116.338926249	46.107600
10210	14763751	0.479529	3.763743	13.721376	0.995287	-3.246962	1.653367	39.978627204	116.338926282	46.107941
10211	14763776	-0.175338	3.971072	14.585179	0.889515	-3.328514	1.746629	39.978627101	116.338926315	46.108207
10212	14763801	-0.852940	4.184930	15.201547	0.741859	-3.442251	1.820327	39.978626998	116.338926349	46.108403
10213	14763826	-1.444730	4.265308	15.146970	0.596338	-3.612431	1.872612	39.978626893	116.338926382	46.281633
10214	14763851	-1.798084	4.155776	14.740830	0.479943	-3.789545	1.914419	39.978626788	116.338926415	46.287326
10215	14763876	-1.898154	3.836563	14.351186	0.412377	-3.956935	1.949006	39.978626681	116.338926449	46.292960
10216	14763901	-1.956728	3.689548	14.278883	0.341906	-4.096359	1.963017	39.978626574	116.338926482	46.298537
10217	14763926	-1.914590	3.711911	14.179301	0.256149	-4.248652	1.981331	39.978626466	116.338926516	46.304065
10218	14763951	-1.919308	3.323742	14.110035	0.121542	-4.368783	2.014540	39.978626358	116.338926550	46.309531
10219	14763976	-2.046409	2.968814	13.705641	-0.042765	-4.506591	2.048023	39.978626248	116.338926583	46.314945
10220	14764001	-2.103227	2.766246	13.044924	-0.198474	-4.613402	2.058408	39.978626138	116.338926617	46.320307
10221	14764026	-2.175899	2.346623	12.262564	-0.342596	-4.711100	2.068100	39.978626027	116.338926650	46.070151
10222	14764051	-2.162267	1.715670	11.331773	-0.485984	-4.793592	2.085087	39.978625915	116.338926684	46.068337
10223	14764076	-2.191265	1.083214	10.451561	-0.575939	-4.865489	2.089049	39.978625803	116.338926718	46.066477
10224	14764101	-2.053555	0.460351	9.536828	-0.641899	-4.913504	2.081325	39.978625690	116.338926751	46.064572
10225	14764126	-1.961873	-0.308776	8.734758	-0.696767	-4.956203	2.067729	39.978625577	116.338926784	46.062626
10226	14764151	-1.956756	-1.178512	7.946767	-0.719979	-5.003837	2.051351	39.978625463	116.338926817	46.060633
10227	14764176	-2.041414	-2.018975	7.072167	-0.690336	-5.038589	1.987809	39.978625349	116.338926850	46.058597
10228	14764201	-2.182140	-2.908491	6.094057	-0.593855	-5.056647	1.900767	39.978625234	116.338926883	46.056520
10229	14764226	-2.177312	-3.923473	5.550695	-0.441730	-5.044068	1.798952	39.978625120	116.338926916	46.031985
10230	14764251	-2.081099	-4.779196	5.067571	-0.249140	-5.006745	1.700777	39.978625005	116.338926948	46.029289
10231	14764276	-1.898759	-5.230409	4.989021	-0.055397	-4.948757	1.608087	39.978624889	116.338926979	46.026553
10232	14764301	-1.811324	-5.449971	4.784615	0.131083	-4.907609	1.511760	39.978624774	116.338927011	46.023778
10233	14764326	-1.832669	-5.452795	4.443871	0.309249	-4.863654	1.448531	39.978624658	116.338927042	46.020963
10234	14764351	-1.972504	-5.755407	4.382816	0.500752	-4.812683	1.403568	39.978624543	116.338927072	46.018110
10235	14764376	-2.271767	-5.804986	4.391696	0.687321	-4.781705	1.384309	39.978624427	116.338927102	46.015219
10236	14764401	-2.603989	-5.831049	4.356698	0.786173	-4.789897	1.405040	39.978624311	116.338927132	46.012294
10237	14764426	-2.800725	-5.644997	4.667445	0.794272	-4.828245	1.460884	39.978624195	116.338927161	46.204086
10238	14764451	-3.033890	-5.395824	5.028551	0.770932	-4.916707	1.545138	39.978624078	116.338927190	46.205263
10239	14764476	-3.140587	-5.019852	5.363974	0.729995	-4.999329	1.640695	39.978623962	116.338927218	46.206410
10240	14764501	-3.087398	-4.388724	5.914467	0.729797	-5.059792	1.674079	39.978623845	116.338927246	46.207528
10241	14764526	-3.027569	-3.569669	6.253656	0.750921	-5.094964	1.669472	39.978623728	116.338927274	46.208618
10242	14764551	-3.134491	-2.954982	6.761185	0.761521	-5.087153	1.628691	39.978623611	116.338927302	46.209677
10243	14764576	-3.256552	-2.637807	7.681374	0.780550	-5.041425	1.575631	39.978623493	116.338927329	46.210710
10244	14764601	-3.504753	-2.444236	8.895118	0.794703	-4.965940	1.516648	39.978623375	116.338927356	46.211719
10245	14764626	-3.990925	-2.038635	10.076178	0.754555	-4.912854	1.463988	39.978623257	116.338927382	46.091282
10246	14764651	-4.657646	-1.972894	11.299972	0.667496	-4.888607	1.435515	39.978623138	116.338927409	46.089927
10247	14764676	-5.285604	-2.033986	12.213566	0.582991	-4.904389	1.425510	39.978623019	116.338927435	46.088566
10248	14764701	-5.917406	-2.039598	13.032849	0.512641	-4.949713	1.408289	39.978622899	116.338927461	46.087207
10249	14764726	-6.491469	-2.043806	13.817582	0.469813	-5.006067	1.390157	39.978622778	116.338927487	46.085884
10252	14764751	-7.056219	-2.007344	14.758149	0.431682	-5.073511	1.354394	39.978622658	116.338927513	46.084544
10253	14764776	-7.525086	-2.046054	15.581443	0.387829	-5.157385	1.312120	39.978622536	116.338927538	46.083222
10254	14764801	-7.878065	-2.253252	16.150128	0.345994	-5.250947	1.284600	39.978622414	116.338927563	46.081924
10255	14764826	-8.168529	-2.584654	16.480277	0.294309	-5.342647	1.265205	39.978630585	116.338925485	46.164814
10256	14764851	-8.385508	-2.945582	16.590819	0.273051	-5.429011	1.250843	39.978630556	116.338925484	46.165545
10257	14764876	-8.520800	-3.270081	16.531064	0.273883	-5.517783	1.241437	39.978630527	116.338925482	46.166311
10258	14764901	-8.739937	-3.535102	16.374370	0.298795	-5.601911	1.233110	39.978630497	116.338925480	46.167111
10259	14764926	-8.953432	-3.758558	16.177961	0.334311	-5.678610	1.219541	39.978630467	116.338925478	46.167956
10260	14764951	-9.093502	-3.903439	15.927337	0.376173	-5.753174	1.214547	39.978630437	116.338925476	46.168831
10261	14764976	-9.186535	-3.928401	15.611945	0.418941	-5.815098	1.206287	39.978630405	116.338925473	46.169744
10262	14765001	-9.196869	-3.972614	15.293776	0.470480	-5.879559	1.197564	39.978630374	116.338925470	46.170696
