PacketCounter	SampleTimeFine	Acc_X	Acc_Y	Acc_Z	Gyr_X	Gyr_Y	Gyr_Z	Latitude	Longitude	Altitude
57460	35207799	-2.109900	1.501034	9.452526	-0.002313	-0.002238	0.009821	39.979033508	116.338918670	45.402268
57461	35207824	-2.069899	1.462648	9.413853	-0.003782	0.001633	0.002402	39.979033508	116.338918672	45.402159
57462	35207849	-2.110020	1.428094	9.449622	-0.002879	0.000681	0.002408	39.979033508	116.338918674	45.402051
57463	35207874	-2.147074	1.498343	9.433877	-0.000730	0.003071	0.005938	39.979033344	116.338918491	45.423983
57464	35207899	-2.173351	1.489979	9.468421	-0.002855	0.003131	0.001465	39.979033344	116.338918494	45.423889
57465	35207924	-2.236976	1.462151	9.542782	0.003068	0.001994	0.002326	39.979033344	116.338918496	45.423795
57466	35207949	-2.156797	1.477581	9.471048	-0.003640	-0.002360	0.002471	39.979033344	116.338918499	45.423702
57467	35207974	-2.104407	1.430943	9.419052	-0.002779	-0.001793	0.001974	39.979033344	116.338918501	45.423607
57468	35207999	-2.155645	1.379786	9.492008	0.000270	-0.001539	0.002436	39.979033344	116.338918504	45.423514
57469	35208024	-2.201247	1.409838	9.547939	-0.003271	-0.002991	0.006734	39.979033344	116.338918507	45.423421
57470	35208049	-2.148662	1.451283	9.508219	-0.002454	-0.005916	0.001541	39.979033344	116.338918509	45.423328
57471	35208074	-2.125097	1.451559	9.436390	-0.002867	-0.003698	0.001787	39.979033344	116.338918512	45.423628
57472	35208099	-2.152589	1.492837	9.437850	0.001749	0.001968	0.004390	39.979033344	116.338918514	45.423536
57473	35208124	-2.182981	1.553163	9.499222	-0.001736	0.003271	0.006430	39.979033345	116.338918517	45.423444
57474	35208149	-2.167888	1.483014	9.485688	-0.006019	-0.001238	0.001131	39.979033345	116.338918520	45.423352
57475	35208174	-2.155416	1.447403	9.436360	0.001299	0.000054	0.007519	39.979033345	116.338918522	45.423261
57476	35208199	-2.145858	1.418464	9.453565	0.001408	0.003301	0.004447	39.979033345	116.338918525	45.423169
57477	35208224	-2.143090	1.441823	9.470930	-0.000688	-0.004764	0.002435	39.979033345	116.338918527	45.423078
57478	35208249	-2.151359	1.492584	9.495049	-0.000843	-0.005820	0.003995	39.979033345	116.338918530	45.422986
57479	35208274	-2.105851	1.462419	9.472358	-0.002050	-0.005157	0.005311	39.979033345	116.338918533	45.418482
57480	35208299	-2.109989	1.426719	9.445637	0.003725	-0.006908	0.003096	39.979033345	116.338918535	45.418386
57481	35208324	-2.140333	1.444549	9.466957	-0.001425	-0.005238	0.004372	39.979033345	116.338918538	45.418290
57482	35208349	-2.155433	1.485850	9.461759	-0.002427	-0.002013	0.004545	39.979033345	116.338918540	45.418194
57483	35208374	-2.143041	1.446018	9.444346	-0.000919	-0.000064	0.007506	39.979033345	116.338918543	45.418098
57484	35208399	-2.129229	1.477640	9.451119	0.001022	0.002439	0.001812	39.979033345	116.338918546	45.418002
57485	35208424	-2.159523	1.499649	9.455156	-0.002857	0.001945	0.006485	39.979033346	116.338918548	45.417906
57486	35208449	-2.183001	1.462480	9.459008	-0.003162	-0.002749	0.005986	39.979033346	116.338918551	45.417810
57487	35208474	-2.165240	1.411383	9.496107	-0.000051	-0.005220	0.001992	39.979033346	116.338918553	45.421895
57488	35208499	-2.151370	1.488468	9.500347	-0.005366	-0.011235	0.004970	39.979033346	116.338918556	45.421804
57489	35208524	-2.165138	1.494044	9.484390	-0.005227	-0.004272	0.005217	39.979033346	116.338918559	45.421713
57490	35208549	-2.147260	1.440394	9.476254	-0.009230	-0.004013	0.005186	39.979033346	116.338918561	45.421623
57491	35208574	-2.118373	1.382583	9.473424	-0.000253	-0.004056	0.003314	39.979033346	116.338918564	45.421532
57492	35208599	-2.154194	1.447225	9.489572	0.000449	-0.006942	0.004765	39.979033346	116.338918566	45.421442
57495	35208624	-2.173502	1.487018	9.518949	0.001334	-0.008735	0.007717	39.979033346	116.338918569	45.421352
57496	35208649	-2.140301	1.485796	9.475079	-0.004132	-0.009206	0.005479	39.979033346	116.338918572	45.421263
57497	35208674	-2.126390	1.488718	9.429865	-0.001924	-0.007059	0.009389	39.979033858	116.338918635	45.456884
57498	35208699	-2.127788	1.491441	9.437855	-0.004193	-0.004545	0.007989	39.979033858	116.338918637	45.456878
57499	35208724	-2.151301	1.447389	9.447012	-0.008304	-0.006688	0.004379	39.979033858	116.338918640	45.456873
57500	35208749	-2.159605	1.474799	9.479017	-0.002682	-0.007521	0.008000	39.979033859	116.338918643	45.456867
57501	35208774	-2.145818	1.489918	9.475079	-0.000039	-0.009990	0.008647	39.979033859	116.338918645	45.456862
57502	35208799	-2.125194	1.426681	9.458923	-0.007331	-0.006050	0.008592	39.979033859	116.338918648	45.456856
57503	35208824	-2.104487	1.423968	9.449617	-0.005165	-0.007203	0.007793	39.979033860	116.338918651	45.456850
57504	35208849	-2.136194	1.445952	9.465632	-0.005534	-0.008759	0.005658	39.979033860	116.338918653	45.456845
57505	35208874	-2.147280	1.463744	9.493622	-0.000495	-0.009426	0.007708	39.979033860	116.338918656	45.459548
57506	35208899	-2.139021	1.415633	9.472181	0.000684	-0.005671	0.005390	39.979033861	116.338918659	45.459545
57507	35208924	-2.100358	1.436311	9.454983	-0.000602	-0.006299	0.009707	39.979033861	116.338918662	45.459542
57508	35208949	-2.089243	1.448765	9.433761	0.000226	-0.008117	0.006770	39.979033861	116.338918664	45.459539
57509	35208974	-2.100243	1.454363	9.421780	0.000910	-0.003879	0.006402	39.979033862	116.338918667	45.459536
57510	35208999	-2.109876	1.496938	9.439208	-0.001042	-0.002286	0.003432	39.979033862	116.338918670	45.459532
57511	35209024	-2.134686	1.468097	9.429788	-0.000447	-0.006162	0.006075	39.979033862	116.338918672	45.459529
57512	35209049	-2.109989	1.439137	9.443004	-0.004773	-0.004101	0.008106	39.979033863	116.338918675	45.459526
57513	35209074	-2.119671	1.465169	9.477670	-0.001919	-0.007969	0.007571	39.979033863	116.338918678	45.459940
57514	35209099	-2.144371	1.492761	9.449826	-0.002056	-0.004664	0.012833	39.979033863	116.338918681	45.459937
57515	35209124	-2.134692	1.531251	9.464588	-0.002730	-0.005655	0.005929	39.979033864	116.338918683	45.459934
57516	35209149	-2.141638	1.494110	9.468441	-0.004217	-0.003223	0.007547	39.979033864	116.338918686	45.459931
57517	35209174	-2.092066	1.393773	9.421602	-0.008598	-0.006828	0.007328	39.979033865	116.338918689	45.459928
57518	35209199	-2.105895	1.414335	9.448248	-0.012663	-0.004877	0.002463	39.979033865	116.338918691	45.459925
57519	35209224	-2.115463	1.484457	9.468440	-0.009544	-0.003752	0.005752	39.979033865	116.338918694	45.459922
57520	35209249	-2.100283	1.470780	9.443118	-0.007463	-0.004415	0.003824	39.979033866	116.338918697	45.459918
57521	35209274	-2.100311	1.461138	9.443091	-0.011207	0.001536	0.007863	39.979033866	116.338918700	45.453638
57522	35209299	-2.101539	1.475104	9.392586	-0.009315	-0.001408	0.001669	39.979033866	116.338918702	45.453629
57523	35209324	-2.144241	1.524569	9.415343	-0.012390	0.003470	0.006159	39.979033867	116.338918705	45.453619
57524	35209349	-2.129295	1.441815	9.465617	-0.008842	0.001566	0.002240	39.979033867	116.338918708	45.453609
57525	35209374	-2.148550	1.465199	9.459040	-0.010526	-0.000849	0.001225	39.979033868	116.338918710	45.453600
57526	35209399	-2.149869	1.506527	9.456516	-0.013943	0.000785	0.004269	39.979033868	116.338918713	45.453590
57527	35209424	-2.129268	1.433636	9.444304	-0.019392	-0.000834	0.001529	39.979033868	116.338918716	45.453580
57528	35209449	-2.097717	1.355103	9.461364	-0.017127	-0.003546	-0.005667	39.979033869	116.338918719	45.453570
57529	35209474	-2.174874	1.451320	9.504198	-0.009310	-0.008695	0.001362	39.979033869	116.338918721	45.451907
57530	35209499	-2.155509	1.498077	9.505698	-0.015743	-0.003332	0.000052	39.979033869	116.338918724	45.451896
57531	35209524	-2.063154	1.425327	9.453638	-0.013898	-0.004734	-0.000744	39.979033870	116.338918727	45.451885
57532	35209549	-2.071150	1.457335	9.361944	-0.010337	-0.003384	-0.003225	39.979033870	116.338918730	45.451874
57533	35209574	-2.154937	1.650015	9.354562	-0.017162	0.006270	0.002606	39.979033871	116.338918732	45.451861
57534	35209599	-2.235929	1.449292	9.682415	-0.017147	-0.009611	-0.000773	39.979033871	116.338918735	45.451849
57535	35209624	-2.220323	1.451360	9.490877	-0.016387	-0.015055	-0.001201	39.979033871	116.338918738	45.451839
57536	35209649	-2.092113	1.404708	9.448223	-0.006755	-0.010860	0.000447	39.979033872	116.338918740	45.451829
57537	35209674	-2.093413	1.410308	9.417658	-0.006995	-0.006455	0.002949	39.979033872	116.338918743	45.452443
57538	35209699	-2.114204	1.388168	9.458797	-0.013341	-0.004514	0.005282	39.979033873	116.338918746	45.452433
57539	35209724	-2.089297	1.428123	9.439000	-0.013116	-0.005552	0.007419	39.979033873	116.338918749	45.452422
57540	35209749	-2.082285	1.453042	9.395180	-0.013217	-0.005947	0.002526	39.979033873	116.338918751	45.452412
57541	35209774	-2.053271	1.486117	9.389997	-0.013633	-0.006545	0.004594	39.979033874	116.338918754	45.452400
57542	35209799	-2.073943	1.472358	9.391270	-0.011121	-0.000687	-0.000973	39.979033874	116.338918757	45.452389
57543	35209824	-2.061545	1.508079	9.402027	-0.020443	-0.002269	0.002088	39.979033875	116.338918760	45.452377
57544	35209849	-2.105837	1.445985	9.455011	-0.017013	0.001195	0.001800	39.979033875	116.338918762	45.452365
57545	35209874	-2.094876	1.397836	9.449544	-0.013408	-0.001064	0.003378	39.979033875	116.338918765	45.439513
57546	35209899	-2.107197	1.440492	9.441694	-0.014138	-0.000346	0.000989	39.979033876	116.338918768	45.439488
57547	35209924	-2.140374	1.447248	9.485585	-0.011040	0.002702	-0.002439	39.979033876	116.338918771	45.439463
57548	35209949	-2.147256	1.476102	9.497652	-0.017837	0.004175	-0.001618	39.979033877	116.338918773	45.439438
57549	35209974	-2.178923	1.466503	9.489621	-0.012766	-0.000598	-0.002828	39.979033877	116.338918776	45.439414
57550	35209999	-2.180338	1.434919	9.473557	-0.012612	0.003706	0.001246	39.979033877	116.338918779	45.439390
57551	35210024	-2.178926	1.485756	9.492339	-0.010780	-0.001819	0.004089	39.979033878	116.338918782	45.439366
57552	35210049	-2.154050	1.477588	9.463065	-0.014217	-0.005250	0.003061	39.979033878	116.338918784	45.439342
57553	35210074	-2.119671	1.419821	9.456240	-0.011969	-0.007261	-0.004196	39.979033879	116.338918787	45.449278
57554	35210099	-2.101803	1.399123	9.464170	-0.012863	-0.007878	0.000943	39.979033879	116.338918790	45.449264
57555	35210124	-2.097711	1.397718	9.480129	-0.006782	-0.006254	0.003813	39.979033880	116.338918793	45.449250
57556	35210149	-2.118382	1.437547	9.489561	-0.008281	-0.003590	0.004174	39.979033880	116.338918795	45.449236
57557	35210174	-2.101860	1.386751	9.472101	-0.009316	-0.002642	0.003913	39.979033880	116.338918798	45.449222
57558	35210199	-2.118341	1.407371	9.473497	-0.005502	-0.000982	0.001186	39.979033881	116.338918801	45.449209
57559	35210224	-2.141713	1.433548	9.465593	-0.011678	-0.005557	0.003771	39.979033881	116.338918804	45.449195
57560	35210249	-2.156830	1.484468	9.465750	-0.010164	0.002030	0.003335	39.979033882	116.338918807	45.449181
57561	35210274	-2.156906	1.415648	9.468178	-0.009876	-0.001656	0.006606	39.979033882	116.338918809	45.447619
57562	35210299	-2.092199	1.386747	9.457487	-0.011940	-0.007935	0.005029	39.979033882	116.338918812	45.447604
57563	35210324	-2.074016	1.433819	9.392466	-0.008805	-0.006229	0.005116	39.979033883	116.338918815	45.447589
57564	35210349	-2.138808	1.485949	9.428526	-0.010654	-0.002067	0.004466	39.979033883	116.338918818	45.447573
57565	35210374	-2.179025	1.477364	9.526897	-0.013016	-0.004612	0.003320	39.979033884	116.338918820	45.447559
57566	35210399	-2.161076	1.445825	9.490889	-0.015077	-0.009647	0.004813	39.979033884	116.338918823	45.447544
57567	35210424	-2.119653	1.447349	9.458988	-0.018054	-0.005257	0.006171	39.979033885	116.338918826	45.447529
57568	35210449	-2.123738	1.437751	9.443003	-0.008272	-0.005649	0.002106	39.979033885	116.338918829	45.447514
57569	35210474	-2.151345	1.462409	9.469674	-0.011776	-0.009155	-0.000052	39.979033885	116.338918831	45.452766
57570	35210499	-2.155509	1.469261	9.484328	-0.011627	-0.012405	0.002773	39.979033886	116.338918834	45.452757
57571	35210524	-2.108656	1.403315	9.452201	-0.020058	-0.014204	0.000076	39.979033886	116.338918837	45.452747
57572	35210549	-2.093368	1.404882	9.403004	-0.020224	-0.014430	0.002083	39.979033887	116.338918840	45.452738
57573	35210574	-2.004931	1.420340	9.307332	-0.020044	-0.009903	0.003716	39.979033887	116.338918843	45.452725
57574	35210599	-1.969047	1.428634	9.292751	-0.021705	-0.010526	0.000568	39.979033888	116.338918845	45.452713
57575	35210624	-1.967518	1.490707	9.267679	-0.025803	-0.008303	0.000533	39.979033888	116.338918848	45.452701
57576	35210649	-2.075019	1.599142	9.339821	-0.026457	-0.000046	-0.001495	39.979033888	116.338918851	45.452687
57577	35210674	-1.980571	1.389394	9.480185	-0.031279	-0.002281	-0.007486	39.979033889	116.338918854	45.446495
57578	35210699	-1.901551	1.317422	9.231214	-0.028192	0.007622	-0.009222	39.979033889	116.338918857	45.446473
57579	35210724	-1.795259	1.317676	9.156783	-0.025131	0.014943	-0.006498	39.979033890	116.338918859	45.446450
57580	35210749	-1.795139	1.382321	9.157013	-0.031182	0.034922	-0.008129	39.979033890	116.338918862	45.446424
57581	35210774	-1.731667	1.471687	9.175973	-0.039451	0.045286	-0.013909	39.979033891	116.338918865	45.446395
57582	35210799	-1.965008	1.464260	9.344738	-0.037868	0.055067	-0.018747	39.979033891	116.338918868	45.446365
57583	35210824	-2.258718	1.517467	9.473790	-0.034788	0.060858	-0.019370	39.979033892	116.338918871	45.446335
57584	35210849	-2.045182	1.410296	9.425664	-0.041477	0.049619	-0.015262	39.979033892	116.338918874	45.446305
57585	35210874	-1.695894	1.293070	9.095590	-0.040999	0.048989	-0.015804	39.979033893	116.338918876	45.453866
57586	35210899	-1.924861	1.301062	9.185946	-0.042805	0.063513	-0.021175	39.979033893	116.338918879	45.453840
57587	35210924	-2.190049	1.393615	9.473406	-0.039010	0.064601	-0.023419	39.979033894	116.338918882	45.453813
57588	35210949	-2.359958	1.501487	9.711776	-0.035271	0.059691	-0.021070	39.979033894	116.338918885	45.453786
57589	35210974	-2.417675	1.580032	9.692047	-0.034958	0.047161	-0.016984	39.979033895	116.338918888	45.453769
57590	35210999	-2.277180	1.408240	9.617071	-0.036314	0.037642	-0.015160	39.979033896	116.338918891	45.453746
57591	35211024	-2.249293	1.326342	9.437240	-0.025080	0.029460	-0.019330	39.979033896	116.338918894	45.453724
57592	35211049	-2.281360	1.268102	9.552755	-0.024462	0.027385	-0.018446	39.979033897	116.338918896	45.453702
57593	35211074	-2.338153	1.289606	9.688483	-0.019304	0.013117	-0.015952	39.979033897	116.338918899	45.454268
57595	35211099	-2.365772	1.292349	9.707083	-0.013512	0.002877	-0.010563	39.979033897	116.338918902	45.454249
57597	35211124	-2.281383	1.328455	9.591540	-0.004967	0.002077	-0.004847	39.979033898	116.338918905	45.454232
57598	35211149	-2.177987	1.442500	9.655816	-0.020508	0.000083	-0.004520	39.979033898	116.338918908	45.454216
57599	35211174	-2.166538	1.426673	9.468213	-0.008826	0.002430	-0.003052	39.979034290	116.338919073	45.482744
57600	35211199	-2.187435	1.484040	9.585455	-0.008708	0.000557	-0.001924	39.979034291	116.338919076	45.482794
57601	35211224	-2.207972	1.522663	9.560292	-0.013517	0.003068	-0.003280	39.979034291	116.338919079	45.482845
57602	35211249	-2.225866	1.488391	9.524244	-0.010031	0.006673	-0.003006	39.979034292	116.338919082	45.482897
57603	35211274	-2.181814	1.429253	9.513441	-0.008094	-0.000378	-0.004488	39.979034293	116.338919085	45.476772
57604	35211299	-2.209504	1.389221	9.543894	-0.009385	0.002195	-0.009958	39.979034293	116.338919088	45.476819
57605	35211324	-2.238406	1.378270	9.537183	-0.011748	-0.002879	-0.006774	39.979034294	116.338919091	45.476867
57606	35211349	-2.243969	1.407112	9.553226	-0.008242	-0.008290	-0.000657	39.979034294	116.338919094	45.476915
57607	35211374	-2.184501	1.414212	9.484129	-0.007796	-0.011893	-0.000212	39.979034295	116.338919097	45.476964
57608	35211399	-2.107152	1.418665	9.404362	-0.004847	-0.010417	-0.006707	39.979034296	116.338919100	45.477012
57609	35211424	-2.100278	1.398012	9.397654	-0.001845	-0.009327	-0.001854	39.979034296	116.338919103	45.477061
57610	35211449	-2.151424	1.425219	9.488167	-0.005104	-0.003752	-0.001888	39.979034297	116.338919106	45.477109
57611	35211474	-2.136217	1.439023	9.468267	-0.002937	-0.003663	-0.000243	39.979034298	116.338919109	45.482756
57612	35211499	-2.097442	1.477782	9.415207	-0.007489	-0.005065	-0.001211	39.979034298	116.338919112	45.482809
57613	35211524	-2.130599	1.544946	9.480599	-0.011857	-0.003761	0.001006	39.979034299	116.338919115	45.482863
57614	35211549	-2.228567	1.522774	9.531022	-0.016265	-0.001897	-0.000916	39.979034299	116.338919118	45.482916
57615	35211574	-2.136097	1.479041	9.445799	-0.012292	-0.011787	-0.006264	39.979034300	116.338919121	45.482971
57616	35211599	-2.096205	1.429496	9.442991	-0.015435	-0.012316	-0.004280	39.979034301	116.338919124	45.483025
57617	35211624	-2.125133	1.422646	9.434969	-0.015762	-0.012341	-0.005417	39.979034301	116.338919127	45.483079
57618	35211649	-2.150063	1.386762	9.465426	-0.015281	-0.014560	-0.005661	39.979034302	116.338919130	45.483132
57619	35211674	-2.108755	1.401776	9.494770	-0.015673	-0.012419	-0.010681	39.979034303	116.338919133	45.483342
57620	35211699	-2.101914	1.378408	9.488046	-0.017846	-0.013174	-0.006683	39.979034303	116.338919136	45.483396
57621	35211724	-2.071469	1.417044	9.465573	-0.013322	-0.006318	-0.004831	39.979034304	116.338919139	45.483450
57622	35211749	-2.064607	1.433472	9.485578	-0.016305	-0.004560	-0.002097	39.979034305	116.338919142	45.483504
57623	35211774	-2.086653	1.410114	9.472200	-0.012720	0.000879	-0.001955	39.979034305	116.338919145	45.483558
57624	35211799	-2.154308	1.411302	9.524044	-0.014739	-0.000030	-0.003226	39.979034306	116.338919148	45.483613
57625	35211824	-2.188829	1.411207	9.550620	-0.009640	0.003693	-0.007389	39.979034307	116.338919151	45.483668
57626	35211849	-2.192969	1.405691	9.554600	-0.012511	-0.002432	-0.006655	39.979034307	116.338919154	45.483723
57627	35211874	-2.125312	1.385308	9.485390	-0.011814	-0.004394	-0.002943	39.979034308	116.338919157	45.478611
57628	35211899	-2.134890	1.400490	9.468147	-0.019407	-0.004031	-0.000621	39.979034309	116.338919160	45.478662
57629	35211924	-2.148594	1.470685	9.479004	-0.016747	-0.001954	0.003037	39.979034309	116.338919163	45.478713
57630	35211949	-2.212155	1.422377	9.512067	-0.012402	-0.002804	-0.002201	39.979034310	116.338919166	45.478765
57631	35211974	-2.121266	1.382408	9.522631	-0.004235	-0.004844	-0.006834	39.979034310	116.338919169	45.478817
57632	35211999	-2.114485	1.331461	9.530442	-0.010261	-0.006610	-0.003117	39.979034311	116.338919172	45.478870
57633	35212024	-2.133614	1.372870	9.497310	-0.004371	-0.004485	0.000313	39.979034312	116.338919175	45.478922
57634	35212049	-2.110242	1.413987	9.540041	-0.010331	-0.002591	0.003031	39.979034312	116.338919178	45.478975
57635	35212074	-2.144695	1.385193	9.517302	-0.009891	0.001085	0.003463	39.979034313	116.338919181	45.484609
57636	35212099	-2.125369	1.407170	9.525370	-0.006460	0.002281	-0.000396	39.979034314	116.338919185	45.484668
57637	35212124	-2.070145	1.430691	9.486895	-0.003584	0.004958	0.000688	39.979034314	116.338919188	45.484727
57638	35212149	-2.078269	1.411659	9.426978	-0.008853	0.009657	0.001274	39.979034315	116.338919191	45.484786
57639	35212174	-2.177578	1.443109	9.498852	-0.006013	0.008564	-0.003164	39.979034316	116.338919194	45.484845
57640	35212199	-2.250769	1.497806	9.576145	-0.008512	0.008684	0.000453	39.979034316	116.338919197	45.484904
57641	35212224	-2.241041	1.480146	9.525536	-0.010833	-0.000939	-0.000311	39.979034317	116.338919200	45.484964
57642	35212249	-2.170529	1.491408	9.449804	-0.013691	0.000422	0.001743	39.979034318	116.338919203	45.485025
57643	35212274	-2.125091	1.446024	9.437708	-0.012673	-0.008599	-0.000626	39.979034318	116.338919206	45.479863
57644	35212299	-2.133320	1.417229	9.411009	-0.013122	-0.007601	-0.005649	39.979034319	116.338919209	45.479918
57645	35212324	-2.166613	1.383985	9.469397	-0.011413	-0.010630	-0.004944	39.979034320	116.338919212	45.479974
57646	35212349	-2.182105	1.365609	9.593035	-0.008589	-0.014633	-0.009874	39.979034320	116.338919215	45.480029
57647	35212374	-2.197073	1.412608	9.547955	-0.011748	-0.018476	-0.008893	39.979034321	116.338919218	45.480088
57648	35212399	-2.201185	1.446975	9.549403	-0.015335	-0.015806	-0.000454	39.979034322	116.338919221	45.480145
57649	35212424	-2.199753	1.474539	9.546840	-0.014335	-0.012049	0.005071	39.979034322	116.338919224	45.480203
57650	35212449	-2.216129	1.531043	9.523076	-0.017464	-0.011708	0.002597	39.979034323	116.338919227	45.480261
57651	35212474	-2.210683	1.500785	9.521641	-0.017716	-0.008035	0.002719	39.979034324	116.338919230	45.474143
57652	35212499	-2.212144	1.456752	9.532134	-0.019224	-0.010422	-0.000177	39.979034325	116.338919233	45.474197
57653	35212524	-2.199788	1.387920	9.521285	-0.015996	-0.010610	-0.007993	39.979034325	116.338919236	45.474251
57654	35212549	-2.210833	1.359141	9.502545	-0.009641	-0.020990	-0.003670	39.979034326	116.338919239	45.474306
57655	35212574	-2.215026	1.356236	9.525155	-0.009412	-0.023930	-0.005421	39.979034327	116.338919242	45.474360
57656	35212599	-2.216489	1.361625	9.571715	-0.010404	-0.026385	-0.000598	39.979034327	116.338919245	45.474416
57657	35212624	-2.190235	1.372719	9.531870	-0.008899	-0.028059	0.001864	39.979034328	116.338919248	45.474472
57658	35212649	-2.154353	1.367262	9.519904	-0.012635	-0.027260	0.003655	39.979034328	116.338919251	45.474529
57659	35212674	-2.114332	1.352304	9.482619	-0.004029	-0.027861	0.002095	39.979034329	116.338919254	45.474963
57660	35212699	-2.119797	1.367490	9.469361	-0.005634	-0.021626	0.004211	39.979034330	116.338919257	45.475021
57661	35212724	-2.081255	1.300090	9.454539	0.003406	-0.021537	0.002588	39.979034330	116.338919260	45.475078
57662	35212749	-2.099125	1.327613	9.450633	-0.001465	-0.013009	0.005488	39.979034331	116.338919263	45.475135
57663	35212774	-2.153316	1.222602	9.575285	0.005017	-0.018895	0.009874	39.979034332	116.338919266	45.475192
57664	35212799	-2.099347	1.286058	9.522325	0.009128	-0.014651	0.010344	39.979034332	116.338919269	45.475250
57665	35212824	-2.016511	1.324747	9.475947	0.001577	-0.020099	0.013052	39.979034333	116.338919272	45.475307
57666	35212849	-2.031504	1.342846	9.426778	-0.003134	-0.011954	0.019595	39.979034334	116.338919275	45.475364
57667	35212874	-2.008192	1.364653	9.484067	0.004905	-0.011529	0.018971	39.979034334	116.338919278	45.477925
57668	35212899	-2.112928	1.357843	9.477322	0.011341	-0.006738	0.010730	39.979034335	116.338919281	45.477984
57669	35212924	-2.144579	1.342790	9.446660	0.016905	0.001490	0.011584	39.979034336	116.338919284	45.478043
57670	35212949	-2.099494	1.287209	9.586190	0.015394	-0.002116	0.011195	39.979034336	116.338919287	45.478103
57671	35212974	-2.125248	1.363418	9.448074	0.021090	-0.004151	0.015196	39.979034337	116.338919290	45.478162
57672	35212999	-2.148773	1.376999	9.497329	0.006160	0.001772	0.028370	39.979034338	116.338919293	45.478222
57673	35213024	-2.143497	1.308023	9.546310	0.013033	-0.003469	0.021654	39.979034338	116.338919296	45.478282
57674	35213049	-2.064726	1.316499	9.479884	0.016406	-0.004800	0.021496	39.979034339	116.338919299	45.478342
57675	35213074	-2.112874	1.329046	9.439981	0.013515	0.000629	0.020716	39.979034339	116.338919302	45.466857
57676	35213099	-2.129613	1.255971	9.482299	0.026572	0.000606	0.020437	39.979034340	116.338919306	45.466906
57677	35213124	-2.195905	1.306544	9.572890	0.023931	-0.006437	0.023057	39.979034341	116.338919309	45.466955
57678	35213149	-2.196073	1.229420	9.588586	0.025932	-0.011797	0.024457	39.979034341	116.338919312	45.467005
57679	35213174	-2.173740	1.299864	9.517000	0.025746	-0.016962	0.029793	39.979034342	116.338919315	45.467056
57680	35213199	-2.159832	1.364623	9.506582	0.021456	-0.013088	0.046319	39.979034343	116.338919318	45.467106
57681	35213224	-2.111772	1.335458	9.562395	0.023693	-0.014286	0.038563	39.979034343	116.338919321	45.467157
57682	35213249	-2.133422	1.443213	9.448331	0.017864	-0.014268	0.039269	39.979034344	116.338919324	45.467209
57683	35213274	-2.121071	1.300394	9.386662	0.035796	-0.007379	0.032315	39.979034344	116.338919327	45.468908
57684	35213299	-2.183369	1.361637	9.557120	0.034229	-0.009607	0.035502	39.979034345	116.338919331	45.468960
57685	35213324	-2.332466	1.362666	9.658123	0.034930	-0.024886	0.034004	39.979034346	116.338919334	45.469014
57686	35213349	-2.260523	1.378243	9.543816	0.037284	-0.028141	0.044507	39.979034346	116.338919337	45.469068
57687	35213374	-2.141808	1.394967	9.474775	0.032188	-0.028764	0.048111	39.979034347	116.338919340	45.469122
57688	35213399	-2.166456	1.367752	9.398845	0.034659	-0.029670	0.047252	39.979034347	116.338919343	45.469177
57689	35213424	-2.107558	1.225763	9.463593	0.044149	-0.035721	0.041312	39.979034348	116.338919346	45.469231
57690	35213449	-2.010952	1.197052	9.398380	0.056590	-0.037363	0.034265	39.979034349	116.338919349	45.469285
57691	35213474	-2.177342	1.517618	9.421952	0.045490	-0.040962	0.046219	39.979034349	116.338919353	45.476342
57692	35213499	-2.274843	1.424062	9.802022	0.033984	-0.047332	0.054723	39.979034350	116.338919356	45.476403
57693	35213524	-2.312987	1.508510	9.666605	0.042836	-0.061223	0.041503	39.979034350	116.338919359	45.476467
57694	35213549	-2.012030	1.469518	9.421879	0.044845	-0.058839	0.039524	39.979034351	116.338919362	45.476531
57695	35213574	-2.020380	1.370504	9.392286	0.048737	-0.049937	0.038731	39.979034351	116.338919365	45.476589
57696	35213599	-2.077253	1.358886	9.551841	0.051270	-0.049450	0.037868	39.979034352	116.338919368	45.476652
57698	35213624	-2.141942	1.415347	9.548008	0.045280	-0.052005	0.036064	39.979034353	116.338919371	45.476716
57700	35213649	-2.238139	1.645060	9.588625	0.042270	-0.057308	0.064585	39.979034353	116.338919375	45.476781
57701	35213674	-2.451704	0.553075	10.043784	-0.057343	-0.110094	0.132889	39.979034948	116.338919622	45.497230
57702	35213699	-1.548406	1.964567	8.843748	0.052652	-0.084226	0.061592	39.979034949	116.338919625	45.497340
57703	35213724	-1.781924	1.333045	9.392344	0.056051	-0.073493	0.025333	39.979034950	116.338919629	45.497449
57704	35213749	-2.291995	1.780549	9.108773	0.060110	-0.082958	0.001509	39.979034951	116.338919632	45.497556
57705	35213774	-1.950475	1.475512	9.614843	0.082970	-0.052804	0.003815	39.979034952	116.338919636	45.497669
57706	35213799	-1.977591	1.214559	9.860030	0.048921	-0.074810	0.021815	39.979034953	116.338919639	45.497777
57707	35213824	-2.031272	1.243021	9.266798	0.060198	-0.066547	0.021958	39.979034954	116.338919642	45.497885
57708	35213849	-1.880327	1.066206	9.411313	0.055525	-0.052455	0.035717	39.979034954	116.338919646	45.497992
57709	35213874	-1.801819	1.235105	9.527636	0.054388	-0.035001	0.046365	39.979034955	116.338919649	45.496041
57710	35213899	-1.844521	1.372373	9.609212	0.060396	-0.006963	0.047329	39.979034956	116.338919653	45.496146
57711	35213924	-1.921447	1.429121	9.542836	0.055502	0.007962	0.038743	39.979034957	116.338919656	45.496251
57712	35213949	-1.952820	1.406259	9.396429	0.061274	0.021280	0.037520	39.979034958	116.338919660	45.496356
57713	35213974	-1.920933	1.421577	9.340642	0.067689	0.027870	0.038381	39.979034959	116.338919663	45.496457
57714	35213999	-1.958256	1.446103	9.411202	0.067838	0.028497	0.034115	39.979034960	116.338919667	45.496560
57715	35214024	-2.061907	1.442971	9.513559	0.063764	0.028436	0.030439	39.979034961	116.338919670	45.496664
57716	35214049	-2.079833	1.425073	9.516150	0.064938	0.022016	0.036475	39.979034962	116.338919674	45.496767
57717	35214074	-2.034201	1.436291	9.459015	0.063628	0.015330	0.033712	39.979034963	116.338919677	45.490761
57718	35214099	-2.038221	1.406317	9.388402	0.065991	0.011981	0.030282	39.979034963	116.338919681	45.490859
57719	35214124	-2.057619	1.483030	9.468463	0.068744	0.016528	0.034001	39.979034964	116.338919684	45.490957
57720	35214149	-2.068598	1.495429	9.476484	0.060585	0.013417	0.036637	39.979034965	116.338919688	45.491054
57721	35214174	-2.058932	1.477655	9.443169	0.065668	0.018041	0.033347	39.979034966	116.338919691	45.491152
57722	35214199	-2.028734	1.433503	9.465648	0.060460	0.010902	0.025411	39.979034967	116.338919695	45.491250
57723	35214224	-2.082014	1.589430	9.370365	0.060719	0.009920	0.031747	39.979034968	116.338919698	45.491347
57724	35214249	-2.049479	1.451251	9.520239	0.054435	0.007728	0.032328	39.979034969	116.338919702	45.491444
57725	35214274	-2.078248	1.489960	9.460495	0.059721	0.003935	0.021268	39.979034970	116.338919705	45.486576
57726	35214299	-1.973214	1.498632	9.354168	0.049245	-0.000885	0.031604	39.979034971	116.338919709	45.486669
57727	35214324	-1.889155	1.405256	9.290055	0.047131	0.003643	0.025131	39.979034972	116.338919712	45.486760
57728	35214349	-1.925162	1.383048	9.347155	0.051503	0.004010	0.024912	39.979034973	116.338919716	45.486851
57729	35214374	-1.958270	1.391155	9.381765	0.050740	0.000668	0.017753	39.979034974	116.338919720	45.486940
57730	35214399	-2.079388	1.465624	9.355324	0.045797	0.004715	0.025485	39.979034975	116.338919723	45.487029
57731	35214424	-2.015049	1.364744	9.466762	0.055540	0.002240	0.025566	39.979034976	116.338919727	45.487117
57732	35214449	-1.937489	1.411930	9.339269	0.058179	0.008298	0.028661	39.979034977	116.338919730	45.487205
57733	35214474	-1.952860	1.374624	9.398994	0.053442	0.017172	0.025102	39.979034978	116.338919734	45.476279
57734	35214499	-1.979093	1.353890	9.412206	0.060046	0.018835	0.022955	39.979034978	116.338919737	45.476356
57735	35214524	-1.984768	1.327529	9.469325	0.063518	0.024502	0.017394	39.979034979	116.338919741	45.476432
57736	35214549	-1.995732	1.307081	9.422688	0.067689	0.028203	0.023885	39.979034980	116.338919745	45.476508
57737	35214574	-1.974986	1.325008	9.412126	0.067516	0.032495	0.026956	39.979034981	116.338919748	45.476583
57738	35214599	-1.929469	1.330569	9.389549	0.071536	0.035109	0.028428	39.979034982	116.338919752	45.476658
57739	35214624	-1.818914	1.372244	9.289981	0.065826	0.044222	0.031583	39.979034983	116.338919756	45.476731
57740	35214649	-1.747084	1.357380	9.207499	0.064567	0.053622	0.029686	39.979034984	116.338919759	45.476803
57741	35214674	-1.686121	1.445735	9.132017	0.068577	0.062381	0.027454	39.979034985	116.338919763	45.479429
57742	35214699	-1.898777	1.475373	9.311555	0.068781	0.080308	0.025488	39.979034986	116.338919767	45.479499
57743	35214724	-2.124998	1.558756	9.466017	0.068358	0.088763	0.020508	39.979034987	116.338919770	45.479568
57744	35214749	-1.884820	1.573046	9.309234	0.065003	0.096935	0.024003	39.979034988	116.338919774	45.479637
57745	35214774	-1.785321	1.562502	9.190861	0.053273	0.106645	0.028612	39.979034989	116.338919778	45.479702
57746	35214799	-1.855533	1.591431	9.188266	0.049222	0.111306	0.023177	39.979034990	116.338919782	45.479768
57747	35214824	-1.858338	1.599602	9.216225	0.051013	0.117764	0.015596	39.979034991	116.338919785	45.479831
57748	35214849	-1.908075	1.569246	9.234711	0.056241	0.120141	0.002269	39.979034992	116.338919789	45.479893
57749	35214874	-1.892848	1.573388	9.226762	0.055331	0.123446	-0.001000	39.979034994	116.338919793	45.474222
57750	35214899	-1.913756	1.494803	9.265062	0.051856	0.120455	-0.006108	39.979034995	116.338919796	45.474276
57751	35214924	-1.999225	1.496163	9.278323	0.049235	0.119819	-0.010087	39.979034996	116.338919800	45.474328
57752	35214949	-1.991042	1.519312	9.335613	0.043806	0.124885	-0.006117	39.979034997	116.338919804	45.474380
57753	35214974	-2.014447	1.491901	9.312889	0.031458	0.117518	-0.004892	39.979034998	116.338919808	45.474431
57754	35214999	-1.971632	1.500354	9.261053	0.034787	0.126442	-0.004619	39.979034999	116.338919811	45.474480
57755	35215024	-1.881876	1.507412	9.201274	0.042127	0.137039	-0.006387	39.979035000	116.338919815	45.474528
57756	35215049	-1.854419	1.510046	9.241210	0.026365	0.149000	-0.003760	39.979035001	116.338919819	45.474574
57757	35215074	-1.879070	1.570731	9.206795	0.035042	0.163783	-0.004266	39.979035002	116.338919823	45.469007
57758	35215099	-1.996398	1.636285	9.338661	0.029032	0.168897	-0.009155	39.979035004	116.338919826	45.469045
57759	35215124	-2.073513	1.641860	9.321338	0.015713	0.169191	-0.003117	39.979035005	116.338919830	45.469082
57760	35215149	-2.154989	1.612837	9.367747	0.009027	0.158910	-0.005674	39.979035006	116.338919834	45.469119
57761	35215174	-2.183737	1.647453	9.309321	0.000209	0.148503	-0.012445	39.979035007	116.338919838	45.469156
57762	35215199	-2.204602	1.604548	9.377008	0.003763	0.136073	-0.021635	39.979035008	116.338919841	45.469192
57763	35215224	-2.321645	1.632213	9.350417	0.000316	0.105241	-0.026290	39.979035009	116.338919845	45.469228
57764	35215249	-2.176704	1.649092	9.242807	0.004296	0.098301	-0.025423	39.979035010	116.338919849	45.469263
57765	35215274	-2.032450	1.541254	9.359590	-0.005363	0.101219	-0.030576	39.979035012	116.338919853	45.463805
57766	35215299	-2.035281	1.663349	9.459762	-0.009520	0.113934	-0.027044	39.979035013	116.338919856	45.463834
57767	35215324	-2.104177	1.688048	9.487752	-0.016756	0.118425	-0.027548	39.979035014	116.338919860	45.463864
57768	35215349	-2.182495	1.563475	9.314352	-0.026955	0.115728	-0.030202	39.979035015	116.338919864	45.463893
57769	35215374	-2.073522	1.500475	9.238380	-0.019489	0.113112	-0.035278	39.979035016	116.338919868	45.463918
57770	35215399	-2.102764	1.535735	9.371507	-0.007303	0.107574	-0.052433	39.979035018	116.338919871	45.463945
57771	35215424	-2.131628	1.578346	9.387604	-0.004493	0.102644	-0.059746	39.979035019	116.338919875	45.463972
57772	35215449	-2.135939	1.457316	9.364568	-0.000772	0.106098	-0.061165	39.979035020	116.338919879	45.463999
57773	35215474	-2.098994	1.406088	9.449557	-0.000581	0.105681	-0.055519	39.979035021	116.338919882	45.462789
57774	35215499	-2.046799	1.345432	9.473328	-0.004701	0.108489	-0.050589	39.979035023	116.338919886	45.462813
57775	35215524	-2.030264	1.295986	9.442576	-0.008251	0.119686	-0.043100	39.979035024	116.338919890	45.462838
57776	35215549	-1.976650	1.240859	9.461051	-0.001721	0.126751	-0.036030	39.979035025	116.338919894	45.462862
57777	35215574	-2.075098	0.983070	9.569225	-0.008728	0.138494	-0.017904	39.979035026	116.338919897	45.462887
57778	35215599	-1.939060	1.484647	9.428601	0.013439	0.157744	-0.039570	39.979035027	116.338919901	45.462911
57779	35215624	-1.977899	1.361803	9.486743	0.020291	0.187749	-0.037971	39.979035029	116.338919905	45.462935
57780	35215649	-2.094589	1.406598	9.320506	0.012779	0.202426	-0.034034	39.979035030	116.338919909	45.462958
57781	35215674	-2.034375	1.320761	9.445318	0.032602	0.224322	-0.036716	39.979035031	116.338919913	45.456587
57782	35215699	-2.164131	1.367120	9.569111	0.035168	0.239146	-0.035019	39.979035032	116.338919917	45.456604
57783	35215724	-2.211057	1.312122	9.555594	0.029108	0.240375	-0.029679	39.979035033	116.338919921	45.456621
57784	35215749	-2.090665	1.381523	9.394943	0.044036	0.259000	-0.031327	39.979035035	116.338919924	45.456639
57785	35215774	-2.141692	1.441842	9.450991	0.040743	0.273064	-0.026408	39.979035036	116.338919928	45.456655
57786	35215799	-2.126121	1.487827	9.316774	0.052273	0.274707	-0.029457	39.979035037	116.338919932	45.456671
57787	35215824	-2.276446	1.539710	9.407350	0.047003	0.281791	-0.025620	39.979035038	116.338919936	45.456688
57788	35215849	-2.323204	1.561981	9.364805	0.046018	0.271788	-0.033966	39.979035040	116.338919940	45.456704
57789	35215874	-2.276255	1.633408	9.389040	0.039034	0.260367	-0.036643	39.979035041	116.338919944	45.446317
57790	35215899	-2.259580	1.611691	9.305151	0.034034	0.251633	-0.037177	39.979035042	116.338919948	45.446323
57791	35215924	-2.251200	1.615959	9.270587	0.033906	0.241831	-0.048773	39.979035043	116.338919952	45.446329
57792	35215949	-2.171036	1.737145	9.243092	0.023440	0.230630	-0.050162	39.979035044	116.338919956	45.446334
57793	35215974	-2.023210	1.715721	9.075521	0.009122	0.231026	-0.054595	39.979035046	116.338919960	45.446334
57794	35215999	-2.184637	1.697640	9.140544	0.005189	0.234483	-0.063796	39.979035047	116.338919964	45.446335
57795	35216024	-2.119833	1.892575	9.250319	-0.010426	0.227667	-0.068550	39.979035048	116.338919967	45.446335
57796	35216049	-2.297930	1.612192	9.198688	-0.022873	0.232497	-0.083031	39.979035050	116.338919971	45.446334
57797	35216074	-1.789374	1.887314	8.791569	-0.016239	0.242385	-0.091361	39.979035051	116.338919975	45.438239
57798	35216099	-1.905906	1.783261	9.050538	-0.049499	0.248471	-0.089003	39.979035052	116.338919979	45.438225
57799	35216124	-1.933571	1.805089	9.093164	-0.055051	0.259407	-0.102167	39.979035054	116.338919983	45.438208
57802	35216149	-2.284029	1.771631	9.236515	-0.055940	0.270911	-0.117761	39.979035055	116.338919987	45.438189
57803	35216174	-2.324187	1.823469	9.356360	-0.049603	0.281815	-0.119852	39.979035872	116.338920429	45.465774
57804	35216199	-2.295228	1.596920	9.219936	-0.061484	0.284831	-0.129926	39.979035874	116.338920434	45.465821
57805	35216224	-2.055182	1.712575	9.173921	-0.075088	0.293732	-0.125572	39.979035875	116.338920438	45.465867
57806	35216249	-2.106108	1.571298	9.065678	-0.095116	0.303660	-0.127120	39.979035877	116.338920442	45.465910
57807	35216274	-2.183459	1.610813	9.174815	-0.096746	0.319658	-0.131859	39.979035879	116.338920446	45.461460
57808	35216299	-2.077216	1.697533	9.157899	-0.109892	0.325574	-0.131206	39.979035881	116.338920450	45.461497
57809	35216324	-2.082713	1.578096	9.082999	-0.110915	0.333121	-0.138059	39.979035883	116.338920454	45.461531
57810	35216349	-2.092459	1.539487	9.101486	-0.110737	0.341766	-0.151744	39.979035885	116.338920458	45.461564
57811	35216374	-2.030345	1.586312	9.088374	-0.115871	0.353774	-0.165151	39.979035887	116.338920463	45.461593
57812	35216399	-1.958403	1.387751	8.832395	-0.103508	0.373541	-0.166449	39.979035889	116.338920467	45.461620
57813	35216424	-1.977280	1.592069	9.383710	-0.118077	0.389206	-0.178057	39.979035891	116.338920471	45.461645
57814	35216449	-1.805709	1.679732	9.123404	-0.132190	0.395326	-0.176658	39.979035893	116.338920475	45.461668
57815	35216474	-1.801326	1.399953	8.867070	-0.132586	0.417651	-0.189164	39.979035895	116.338920479	45.457290
57816	35216499	-1.681176	1.556805	8.868979	-0.129345	0.439020	-0.198562	39.979035897	116.338920483	45.457302
57817	35216524	-1.507484	1.466313	8.759741	-0.136539	0.460878	-0.201951	39.979035899	116.338920488	45.457310
57818	35216549	-1.670206	1.305522	8.731184	-0.129645	0.497608	-0.218561	39.979035901	116.338920492	45.457312
57819	35216574	-1.923020	1.358057	9.035833	-0.119907	0.529344	-0.234959	39.979035903	116.338920496	45.457312
57820	35216599	-2.116368	1.479771	9.239626	-0.118245	0.545955	-0.240363	39.979035905	116.338920501	45.457309
57821	35216624	-2.156088	1.381300	9.088953	-0.124283	0.571357	-0.242505	39.979035908	116.338920505	45.457303
57822	35216649	-2.182513	1.321804	9.177872	-0.107765	0.587921	-0.242141	39.979035910	116.338920509	45.457296
57823	35216674	-2.251873	1.337646	9.354806	-0.107569	0.598921	-0.250743	39.979035912	116.338920514	45.452004
57824	35216699	-2.341087	1.316280	9.191041	-0.096744	0.612204	-0.253692	39.979035914	116.338920518	45.451990
57825	35216724	-2.215485	1.324778	9.106011	-0.103433	0.624658	-0.247215	39.979035916	116.338920522	45.451974
57826	35216749	-2.174073	1.306929	9.113959	-0.101237	0.640133	-0.248967	39.979035919	116.338920527	45.451956
57827	35216774	-2.465924	1.211936	9.500628	-0.096528	0.640866	-0.241357	39.979035921	116.338920531	45.451940
57828	35216799	-2.675445	1.452403	9.603681	-0.079255	0.640966	-0.252900	39.979035923	116.338920536	45.451922
57829	35216824	-2.605645	1.444164	9.239202	-0.070924	0.648494	-0.260365	39.979035925	116.338920540	45.451905
57830	35216849	-2.434387	1.493927	9.154290	-0.064377	0.659995	-0.249459	39.979035928	116.338920545	45.451887
57831	35216874	-2.055167	1.586302	9.077725	-0.080019	0.667797	-0.247304	39.979035930	116.338920549	45.441774
57832	35216899	-2.009883	1.351256	9.030417	-0.070880	0.686461	-0.258359	39.979035932	116.338920554	45.441743
57833	35216924	-2.184953	0.919145	9.401380	-0.026076	0.687392	-0.279287	39.979035935	116.338920558	45.441710
57834	35216949	-2.209936	1.205970	9.599131	-0.010139	0.687073	-0.286493	39.979035937	116.338920563	45.441677
57835	35216974	-2.108720	0.942077	9.142029	-0.011092	0.705823	-0.289026	39.979035939	116.338920567	45.441644
57836	35216999	-1.862681	0.867461	8.838647	-0.001937	0.748555	-0.271350	39.979035941	116.338920572	45.441606
57837	35217024	-1.938458	1.176332	9.048527	-0.013547	0.785780	-0.255413	39.979035944	116.338920577	45.441564
57838	35217049	-2.265157	1.379680	9.174073	-0.022542	0.818131	-0.238150	39.979035946	116.338920581	45.441520
57839	35217074	-2.508979	1.390937	9.118024	0.001651	0.857580	-0.249051	39.979035949	116.338920586	45.434580
57840	35217099	-2.377682	1.553458	9.064048	0.013667	0.894302	-0.259388	39.979035951	116.338920591	45.434527
57841	35217124	-2.165865	0.925581	9.542408	0.038230	0.915192	-0.273648	39.979035953	116.338920596	45.434472
57842	35217149	-3.387082	0.758373	10.536295	0.174564	0.893687	-0.325939	39.979035956	116.338920601	45.434422
57843	35217174	-2.826242	1.058802	9.556782	0.141482	0.907786	-0.314984	39.979035958	116.338920605	45.434385
57844	35217199	-2.355232	0.477437	9.425184	0.139308	0.933452	-0.269803	39.979035961	116.338920610	45.434339
57845	35217224	-3.087295	0.979681	9.801400	0.201629	0.968765	-0.254549	39.979035963	116.338920615	45.434295
57846	35217249	-2.615599	1.081865	9.666235	0.153004	1.006280	-0.212842	39.979035965	116.338920620	45.434253
57847	35217274	-2.298692	0.990692	9.054246	0.173369	1.050575	-0.203560	39.979035968	116.338920625	45.435369
57848	35217299	-2.303377	1.169986	8.932555	0.195362	1.107683	-0.207692	39.979035970	116.338920631	45.435325
57849	35217324	-2.258260	1.203922	9.051086	0.209531	1.140346	-0.206095	39.979035973	116.338920636	45.435277
57850	35217349	-2.593820	1.342350	8.861156	0.206162	1.161480	-0.208855	39.979035975	116.338920641	45.435227
57851	35217374	-2.623050	1.113803	8.868245	0.204127	1.166849	-0.205301	39.979035977	116.338920646	45.435173
57852	35217399	-2.154862	1.520634	8.647708	0.216438	1.178407	-0.223516	39.979035980	116.338920651	45.435116
57853	35217424	-2.305127	1.226592	8.528440	0.235517	1.201457	-0.247793	39.979035982	116.338920657	45.435053
57854	35217449	-2.426561	1.419853	8.721761	0.248680	1.231480	-0.252794	39.979035985	116.338920662	45.434985
57855	35217474	-2.384597	1.340545	8.956942	0.237048	1.262875	-0.249522	39.979035988	116.338920667	45.427157
57856	35217499	-2.337425	1.373992	8.842736	0.234138	1.298257	-0.245182	39.979035990	116.338920673	45.427076
57857	35217524	-2.302927	1.229872	8.734520	0.232726	1.344991	-0.226973	39.979035993	116.338920678	45.426991
57858	35217549	-2.491960	1.235019	8.851508	0.237663	1.383244	-0.227799	39.979035995	116.338920683	45.426902
57859	35217574	-2.480790	1.202357	8.741021	0.220627	1.423463	-0.226767	39.979035998	116.338920689	45.426808
57860	35217599	-2.807197	1.256146	8.742314	0.246343	1.458556	-0.232892	39.979036001	116.338920694	45.426711
57861	35217624	-2.730054	1.278069	8.745058	0.231904	1.477645	-0.231753	39.979036003	116.338920700	45.426611
57862	35217649	-2.994505	1.421138	8.788134	0.220849	1.491256	-0.231367	39.979036006	116.338920705	45.426508
57863	35217674	-3.400081	1.432764	9.007304	0.226782	1.505745	-0.237379	39.979036009	116.338920711	45.420816
57864	35217699	-3.972462	0.594648	10.566081	0.313571	1.470301	-0.281482	39.979036012	116.338920717	45.420711
57865	35217724	-4.281917	0.795267	10.614169	0.425469	1.434339	-0.324878	39.979036014	116.338920722	45.420615
57866	35217749	-3.912910	0.975972	9.732792	0.396756	1.477175	-0.287718	39.979036017	116.338920728	45.420527
57867	35217774	-3.858532	0.851554	9.536112	0.391478	1.528827	-0.230983	39.979036020	116.338920734	45.420430
57868	35217799	-4.468533	1.253281	9.559470	0.369881	1.570965	-0.179125	39.979036022	116.338920739	45.420349
57869	35217824	-4.311292	1.536467	9.656059	0.348951	1.577356	-0.141662	39.979036025	116.338920745	45.420274
57870	35217849	-4.302589	1.845575	9.086693	0.354065	1.569244	-0.145635	39.979036027	116.338920751	45.420203
57871	35217874	-3.979410	1.825504	8.861739	0.328151	1.570092	-0.155531	39.979036030	116.338920756	45.415666
57872	35217899	-4.710621	1.517276	9.737776	0.390111	1.516792	-0.193441	39.979036032	116.338920762	45.415596
57873	35217924	-5.628972	2.030426	10.080048	0.441471	1.465272	-0.223322	39.979036035	116.338920768	45.415535
57874	35217949	-4.934807	1.846967	9.475827	0.373633	1.412548	-0.207552	39.979036037	116.338920773	45.415483
57875	35217974	-3.977805	1.816744	8.665966	0.370139	1.412589	-0.208026	39.979036040	116.338920779	45.415420
57876	35217999	-3.468023	1.717734	9.339434	0.372374	1.506798	-0.183091	39.979036042	116.338920784	45.415372
57877	35218024	-3.563212	1.749010	9.834197	0.350751	1.594466	-0.179394	39.979036045	116.338920790	45.415327
57878	35218049	-4.243345	1.561629	9.982123	0.453523	1.720129	-0.204289	39.979036047	116.338920795	45.415288
57879	35218074	-3.299713	1.280872	9.856218	0.495466	1.880652	-0.184465	39.979036050	116.338920801	45.405927
57880	35218099	-2.685788	0.785822	9.360582	0.452209	2.048283	-0.112842	39.979036053	116.338920807	45.405886
57881	35218124	-3.220166	1.236965	9.081539	0.394273	2.181463	-0.044870	39.979036055	116.338920812	45.405844
57882	35218149	-3.988547	1.359785	9.444763	0.431617	2.261150	-0.034255	39.979036058	116.338920818	45.405804
57883	35218174	-4.639008	1.924986	9.187982	0.426268	2.256097	-0.039303	39.979036060	116.338920824	45.405777
57884	35218199	-3.845150	2.463024	8.819500	0.411246	2.213462	-0.062808	39.979036063	116.338920830	45.405742
57885	35218224	-2.621422	2.101314	8.280670	0.368704	2.248755	-0.083609	39.979036066	116.338920836	45.405705
57886	35218249	-2.878383	1.641715	8.704005	0.380718	2.360620	-0.085604	39.979036069	116.338920842	45.405663
57887	35218274	-4.120335	1.187618	9.058198	0.372145	2.495095	-0.096895	39.979036071	116.338920848	45.402492
57888	35218299	-4.054140	1.995150	8.081668	0.259196	2.527377	-0.085209	39.979036074	116.338920854	45.402445
57889	35218324	-3.637569	1.593115	6.991938	0.192149	2.584307	-0.071980	39.979036077	116.338920859	45.402390
57890	35218349	-2.804776	1.598253	7.400744	0.181570	2.708133	-0.049013	39.979036080	116.338920865	45.402324
57891	35218374	-2.171243	0.927645	8.527787	0.073689	2.961431	0.007068	39.979036083	116.338920872	45.402242
57892	35218399	-3.814011	1.685060	10.061926	0.066707	3.084481	0.009073	39.979036086	116.338920878	45.402166
57893	35218424	-4.194258	1.763166	9.116235	0.222271	3.031042	-0.045978	39.979036089	116.338920884	45.402094
57894	35218449	-4.540174	2.825256	7.627284	0.243265	3.065437	-0.131183	39.979036092	116.338920890	45.402021
57895	35218474	-2.984021	1.903474	7.477128	0.178288	3.237240	-0.157513	39.979036095	116.338920896	45.403871
57896	35218499	-2.267697	1.624543	8.063153	0.147529	3.418680	-0.213667	39.979036099	116.338920903	45.403783
57897	35218524	-1.828593	1.603542	7.470362	0.173540	3.625700	-0.257310	39.979036102	116.338920909	45.403683
57898	35218549	-2.395675	1.011224	7.894851	0.156990	3.878160	-0.293590	39.979036105	116.338920916	45.403570
57899	35218574	-2.417077	2.064263	7.676258	0.244486	4.034848	-0.401309	39.979036109	116.338920922	45.403446
57900	35218599	-7.420162	3.671407	9.394258	0.185665	4.162041	-0.441523	39.979036113	116.338920929	45.403324
57902	35218624	-7.177644	3.373492	11.490996	0.118584	4.073267	-0.484549	39.979036116	116.338920935	45.403224
57904	35218649	1.157760	1.798584	9.626681	0.329448	4.183680	-0.677444	39.979036120	116.338920942	45.403128
57905	35218674	-2.494386	3.113317	11.453738	0.490163	4.425881	-0.869033	39.979036902	116.338920822	45.423337
57906	35218699	-4.697036	2.147336	12.197680	0.714327	4.441970	-1.004837	39.979036907	116.338920829	45.423299
57907	35218724	-1.963510	0.983902	10.793976	0.760326	4.551551	-1.064575	39.979036912	116.338920836	45.423270
57908	35218749	-2.305141	1.183874	11.250839	0.792252	4.698206	-1.159917	39.979036916	116.338920844	45.423243
57909	35218774	-1.359423	1.679239	11.975424	1.061475	4.864944	-1.354374	39.979036922	116.338920852	45.423200
57910	35218799	0.279251	1.534064	12.860519	1.211768	5.127835	-1.559221	39.979036927	116.338920860	45.423180
57911	35218824	-4.037073	1.080938	10.876693	1.293572	5.433268	-1.682456	39.979036933	116.338920869	45.423164
57912	35218849	-11.125631	1.230139	8.714915	1.259646	5.641091	-1.746063	39.979036939	116.338920877	45.423164
57913	35218874	-10.909622	0.549026	7.087641	1.252506	5.745274	-1.825559	39.979036943	116.338920885	45.418279
57914	35218899	-10.226238	2.490458	7.826155	1.223970	5.875721	-1.896693	39.979036948	116.338920893	45.418314
57915	35218924	2.388896	2.640184	9.200222	0.967026	6.014815	-2.084758	39.979036954	116.338920902	45.418345
57916	35218949	7.492327	5.162782	11.540665	1.177594	6.427663	-2.439962	39.979036960	116.338920911	45.418345
57917	35218974	0.916952	5.055219	13.906008	1.105437	6.717986	-2.675056	39.979036968	116.338920921	45.418293
57918	35218999	-3.607662	3.626482	10.159210	0.885108	6.891656	-2.878634	39.979036975	116.338920931	45.418275
57919	35219024	-5.452453	4.997567	10.126209	0.837742	7.090255	-3.135880	39.979036982	116.338920940	45.418264
57920	35219049	-4.975422	3.577365	10.386548	0.704391	7.210412	-3.328830	39.979036990	116.338920950	45.418262
57921	35219074	-5.708607	-1.347721	10.836140	1.169183	7.343173	-3.685685	39.979036997	116.338920961	45.273010
57922	35219099	-4.596305	-2.999668	10.221241	1.884679	7.525959	-4.100457	39.979037005	116.338920971	45.273012
57923	35219124	-3.804596	0.711225	10.327875	2.298472	7.815589	-4.376817	39.979037012	116.338920982	45.273012
57924	35219149	-4.115258	1.200180	11.198423	2.432548	8.009324	-4.424592	39.979037020	116.338920994	45.273012
57925	35219174	-12.828478	-1.725867	11.475386	2.592968	8.124306	-4.486091	39.979037028	116.338921005	45.273105
57926	35219199	-9.985092	6.824461	9.988390	2.006050	8.264234	-4.413725	39.979037036	116.338921017	45.273165
57927	35219224	-9.571228	11.641597	8.433009	1.307216	8.429350	-4.287443	39.979037045	116.338921028	45.273253
57928	35219249	-9.216864	14.099476	9.185550	0.649250	8.561709	-4.149149	39.979037054	116.338921040	45.273366
57929	35219274	-4.415704	8.595842	8.043683	0.311947	8.645512	-4.459595	39.979037064	116.338921051	45.108283
57930	35219299	-5.366056	11.614698	13.698534	0.123374	8.710801	-4.647011	39.979037075	116.338921062	45.086749
57931	35219324	-2.742696	10.452035	14.665692	-0.714246	8.816583	-4.728383	39.979037086	116.338921073	45.065224
57932	35219349	-0.796191	6.010630	13.288266	-0.989733	8.982812	-4.883747	39.979037098	116.338921085	45.043692
57933	35219374	-3.479038	5.945724	16.988832	-0.985942	9.029822	-5.069737	39.979037110	116.338921098	45.022131
57934	35219399	-6.148317	7.245546	23.420840	-0.812949	8.697540	-5.240656	39.979037123	116.338921111	45.000615
57935	35219424	-0.940299	8.460705	25.194386	-0.669213	8.565821	-5.499773	39.979037138	116.338921125	44.979121
57936	35219449	0.865030	8.624583	14.317345	-0.706413	8.980853	-6.039314	39.979037153	116.338921139	44.957615
57937	35219474	-10.492222	3.628575	3.419015	-0.969324	9.852500	-6.247426	39.979037167	116.338921152	45.285941
57938	35219499	-12.659062	2.650997	4.706832	-1.215201	10.104020	-6.468708	39.979037183	116.338921167	45.302149
57939	35219524	-4.676054	8.389025	16.418682	-0.983042	10.070539	-6.648991	39.979037200	116.338921182	45.318365
57940	35219549	-2.284222	9.804897	23.162413	-0.664483	9.457036	-6.795808	39.979037217	116.338921198	45.334575
57941	35219574	-1.879553	10.374427	17.779740	-0.575197	8.982211	-6.954506	39.979037237	116.338921216	45.350692
57942	35219599	-3.425394	8.380104	9.128813	-0.995966	9.026167	-6.832731	39.979037257	116.338921232	45.366855
57943	35219624	-24.736399	7.756209	7.673119	-1.835029	9.655228	-6.348336	39.979037276	116.338921249	45.383050
57944	35219649	-53.589819	15.529821	39.539709	-2.327014	9.474317	-5.194867	39.979037298	116.338921266	45.399442
57945	35219674	-62.706149	19.770067	58.392716	-2.071287	7.711057	-3.664207	39.979037325	116.338921288	45.185361
57946	35219699	-56.111965	21.522303	64.988719	-2.146833	5.036162	-2.469576	39.979037352	116.338921308	45.177405
57947	35219724	-48.759729	24.079326	66.220516	-1.587312	2.263457	-1.699121	39.979037381	116.338921331	45.169749
57948	35219749	-38.078248	26.191556	62.692829	-0.755805	0.161919	-1.261202	39.979037414	116.338921356	45.162331
57949	35219774	-25.681599	27.476413	60.206345	-0.367755	-1.234395	-0.967013	39.979037451	116.338921383	45.154737
57950	35219799	-16.104647	27.084329	57.817036	-0.189154	-2.183594	-0.793492	39.979037490	116.338921412	45.147576
57951	35219824	-11.014217	26.125234	52.803071	0.097797	-2.716976	-0.708759	39.979037533	116.338921443	45.140463
57952	35219849	-8.918016	24.824787	48.405335	0.218760	-2.818138	-0.608967	39.979037578	116.338921476	45.133373
57953	35219874	-6.980867	23.764891	45.602310	0.225187	-2.354007	-0.549118	39.979037625	116.338921510	44.960066
57954	35219899	-4.392136	22.682273	43.196969	0.487692	-1.586844	-0.573168	39.979037675	116.338921547	44.934615
57955	35219924	-3.486810	20.673647	37.467362	0.495056	-1.354510	-0.467144	39.979037728	116.338921585	44.909149
57956	35219949	-4.345248	18.068496	29.413207	0.232627	-1.667236	-0.200354	39.979037782	116.338921624	44.883662
57957	35219974	-4.316265	15.648984	24.884728	-0.211013	-2.176034	0.083681	39.979037837	116.338921663	44.858137
57958	35219999	-3.060291	12.830335	19.121715	-0.406898	-2.759450	0.433628	39.979037895	116.338921703	44.832600
57959	35220024	-1.595755	10.458074	16.411960	-0.680519	-3.181819	0.578228	39.979037953	116.338921745	44.807027
57960	35220049	0.171201	10.214005	13.637027	-0.829151	-3.411542	0.568499	39.979038013	116.338921786	44.781404
57961	35220074	2.041565	9.941274	11.191936	-0.793786	-3.379193	0.416028	39.979038073	116.338921828	44.674758
57962	35220099	3.394651	9.407242	9.708573	-0.674323	-3.253495	0.232520	39.979038134	116.338921870	44.642330
57963	35220124	3.616475	8.470148	8.555458	-0.543265	-3.163175	0.057820	39.979038196	116.338921913	44.609824
57964	35220149	2.814033	7.656109	7.688483	-0.419414	-3.114402	-0.087938	39.979038259	116.338921956	44.577241
57965	35220174	1.803956	6.938438	7.147126	-0.283546	-3.088180	-0.154670	39.979038321	116.338921999	44.544603
57966	35220199	1.436000	6.042477	7.158931	-0.215291	-3.105449	-0.127173	39.979038385	116.338922042	44.511883
57967	35220224	1.514292	5.710994	7.104817	-0.145723	-3.146280	-0.066856	39.979038449	116.338922086	44.479097
57968	35220249	1.633051	5.833737	7.040096	-0.048986	-3.162744	-0.012046	39.979038514	116.338922129	44.446246
57969	35220274	1.835613	6.093294	7.186115	0.060874	-3.150424	0.046668	39.979038579	116.338922173	45.237663
57970	35220299	2.036681	6.231858	7.282429	0.165925	-3.128322	0.095338	39.979038645	116.338922217	45.253308
57971	35220324	2.077674	6.375490	7.511587	0.279833	-3.102944	0.156577	39.979038711	116.338922262	45.268887
57972	35220349	2.005918	6.555153	7.682387	0.385148	-3.087220	0.223199	39.979038778	116.338922306	45.284400
57973	35220374	1.854190	6.726476	7.862396	0.474094	-3.095057	0.299533	39.979038846	116.338922351	45.299853
57974	35220399	1.638997	6.998253	8.062689	0.553408	-3.114622	0.373382	39.979038914	116.338922396	45.315238
57975	35220424	1.679786	7.276269	8.396351	0.615677	-3.134765	0.468975	39.979038982	116.338922441	45.330561
57976	35220449	1.321178	7.482548	8.832885	0.637980	-3.180078	0.554857	39.979039051	116.338922487	45.345825
57977	35220474	0.888780	7.884432	8.849979	0.668727	-3.222623	0.625010	39.979039121	116.338922532	44.748969
57978	35220499	0.520275	8.192828	9.194090	0.705620	-3.266148	0.689419	39.979039192	116.338922578	44.736385
57979	35220524	0.261452	8.492034	9.753572	0.709959	-3.323621	0.773157	39.979039263	116.338922624	44.723751
57980	35220549	-0.073350	8.717930	10.439210	0.680263	-3.389178	0.871245	39.979039335	116.338922670	44.711069
57981	35220574	-0.513657	9.038061	10.966656	0.643883	-3.461449	0.972696	39.979039407	116.338922717	44.698362
57982	35220599	-0.907523	9.271413	11.526121	0.598735	-3.536735	1.082098	39.979039481	116.338922764	44.685598
57983	35220624	-1.206103	9.364596	11.997048	0.536836	-3.623773	1.191819	39.979039555	116.338922811	44.672797
57984	35220649	-1.421504	9.424008	12.329793	0.472182	-3.716040	1.301786	39.979039630	116.338922858	44.659964
57985	35220674	-1.609237	9.324514	12.433127	0.391515	-3.834055	1.419790	39.979039706	116.338922906	45.057979
57986	35220699	-1.886152	9.107374	12.390925	0.309300	-3.956812	1.533182	39.979039782	116.338922953	45.060147
57987	35220724	-2.058330	8.775334	12.164974	0.274189	-4.065628	1.611499	39.979039860	116.338923001	45.062290
57988	35220749	-1.964359	8.362743	11.736637	0.272295	-4.150404	1.663775	39.979039938	116.338923050	45.064408
57989	35220774	-1.957218	7.942775	11.440042	0.284956	-4.236669	1.699834	39.979040016	116.338923098	45.066503
57990	35220799	-1.809353	7.480486	11.033052	0.286596	-4.323132	1.746883	39.979040096	116.338923147	45.068570
57991	35220824	-1.578512	6.755711	10.849874	0.256327	-4.394000	1.824974	39.979040176	116.338923196	45.070611
57992	35220849	-1.464905	6.101209	10.355541	0.231105	-4.465564	1.898092	39.979040257	116.338923245	45.072626
57993	35220874	-1.280815	5.610787	9.727413	0.222443	-4.523962	1.970278	39.979040338	116.338923295	44.772491
57994	35220899	-1.424061	4.694982	9.145311	0.235710	-4.568985	2.029863	39.979040420	116.338923344	44.765165
57995	35220924	-1.440235	4.045048	8.562239	0.283090	-4.604721	2.079212	39.979040502	116.338923394	44.757811
57996	35220949	-1.214045	3.380746	8.066658	0.328512	-4.631560	2.117741	39.979040584	116.338923445	44.750426
57997	35220974	-1.032886	2.682556	7.456595	0.379520	-4.654715	2.150240	39.979040667	116.338923495	44.743001
57998	35220999	-0.912050	1.793510	7.041131	0.444798	-4.666908	2.177480	39.979040751	116.338923546	44.735550
57999	35221024	-0.861378	1.051621	6.699488	0.522690	-4.677147	2.196503	39.979040834	116.338923597	44.728065
58000	35221049	-0.533030	0.390550	6.135322	0.584764	-4.674390	2.207787	39.979040918	116.338923648	44.720544
58001	35221074	-0.424062	-0.530105	6.063833	0.694631	-4.629075	2.190289	39.979041001	116.338923699	44.954799
58003	35221099	-0.652199	-1.297298	5.865673	0.884947	-4.567866	2.153797	39.979041085	116.338923751	44.953596
58005	35221124	-0.790557	-1.513154	5.787805	0.996568	-4.534690	2.138658	39.979041169	116.338923803	44.952356
58006	35221149	-0.950022	-1.892476	6.013787	1.102915	-4.519278	2.117957	39.979041254	116.338923856	44.951081
58007	35221174	-1.188461	-1.979517	6.055414	1.208923	-4.504510	2.098528	39.979036864	116.338920462	45.090358
58008	35221199	-1.094150	-1.977952	6.217604	1.286478	-4.506662	2.084272	39.979036880	116.338920468	45.090635
58009	35221224	-0.883280	-2.205425	6.317975	1.437183	-4.348530	2.048020	39.979036897	116.338920474	45.090879
58010	35221249	-0.564724	-1.878490	7.586299	1.544998	-4.259329	2.002660	39.979036914	116.338920480	45.091093
58011	35221274	-0.093379	-0.986077	7.459183	1.561599	-4.173348	1.964131	39.979036931	116.338920487	45.081842
58012	35221299	-1.994639	-0.297024	7.736098	1.562602	-4.169688	1.894261	39.979036948	116.338920494	45.081999
58013	35221324	-2.340376	-0.512576	9.064934	1.473013	-4.324847	1.892537	39.979036966	116.338920501	45.082138
58014	35221349	-4.834443	1.054701	7.556155	1.454123	-4.505318	1.855065	39.979036983	116.338920508	45.082267
58015	35221374	-3.614636	-1.133901	9.990663	1.491947	-4.473849	1.931849	39.979037001	116.338920516	45.082420
58016	35221399	-3.025195	0.277620	12.311215	1.480569	-4.505051	1.881064	39.979037018	116.338920524	45.082545
58017	35221424	-2.070790	3.077042	12.135404	1.534123	-4.463615	1.785180	39.979037036	116.338920533	45.082672
58018	35221449	-2.968591	1.588014	13.386372	1.406155	-4.353626	1.807691	39.979037055	116.338920541	45.082803
58019	35221474	-3.768568	2.412558	15.139338	1.331293	-4.478252	1.785378	39.979037074	116.338920551	45.084674
58020	35221499	-5.177471	3.042969	14.641841	1.202309	-4.735774	1.792014	39.979037093	116.338920560	45.084847
58021	35221524	-7.055315	3.143776	15.133378	1.075407	-4.912973	1.848595	39.979037112	116.338920570	45.085052
58022	35221549	-6.581399	3.107847	16.847121	1.053863	-4.969050	1.912315	39.979037132	116.338920581	45.085297
58023	35221574	-5.871009	2.609992	18.054979	1.011493	-5.023427	1.981497	39.979037152	116.338920591	45.085622
58024	35221599	-6.414395	2.394821	18.196982	0.954278	-5.098957	2.058851	39.979037172	116.338920602	45.085962
58025	35221624	-7.129825	2.281958	18.266932	0.938060	-5.206212	2.126856	39.979037192	116.338920614	45.086355
58026	35221649	-7.408545	2.070870	17.797113	0.924707	-5.368352	2.174330	39.979037213	116.338920626	45.086802
58027	35221674	-7.025080	1.445009	17.048268	0.942445	-5.469582	2.217291	39.979037234	116.338920637	45.150043
58028	35221699	-6.445827	0.791095	17.389373	1.021449	-5.499351	2.234738	39.979037255	116.338920650	45.150601
58029	35221724	-6.562717	0.505282	17.248841	1.100674	-5.528141	2.254454	39.979037276	116.338920663	45.151208
58030	35221749	-7.056329	-0.146998	16.573808	1.225080	-5.527024	2.260547	39.979037298	116.338920676	45.151862
58031	35221774	-7.362415	-0.622964	16.761966	1.348863	-5.549281	2.279124	39.979037319	116.338920689	45.152565
58032	35221799	-7.316974	-0.998263	16.466491	1.410125	-5.617712	2.324418	39.979037341	116.338920703	45.153316
58033	35221824	-7.219825	-1.731948	16.011376	1.424684	-5.675805	2.381223	39.979037362	116.338920717	45.154113
58034	35221849	-7.334620	-2.054935	15.266363	1.485685	-5.713285	2.420765	39.979037383	116.338920732	45.154952
58035	35221874	-7.331109	-2.112557	14.860304	1.568628	-5.703553	2.435136	39.979037405	116.338920747	45.123688
58036	35221899	-6.900905	-2.120678	14.371781	1.618759	-5.676920	2.426830	39.979037426	116.338920762	45.124597
58037	35221924	-6.517674	-2.122010	13.984908	1.668441	-5.659263	2.387589	39.979037447	116.338920778	45.125539
58038	35221949	-6.978082	-2.393884	12.988376	1.726194	-5.649769	2.346268	39.979037468	116.338920793	45.126511
58039	35221974	-7.275043	-2.565867	12.989002	1.712720	-5.599755	2.350256	39.979037488	116.338920809	45.127498
58040	35221999	-7.144869	-2.801032	12.953566	1.661915	-5.579069	2.365248	39.979037509	116.338920826	45.128526
58041	35222024	-7.348771	-2.590831	12.380982	1.653938	-5.531203	2.333300	39.979037529	116.338920842	45.129579
58042	35222049	-7.282590	-2.649324	12.446257	1.637967	-5.458728	2.303292	39.979037549	116.338920859	45.130657
58043	35222074	-7.371330	-2.494396	12.620385	1.588581	-5.420739	2.260707	39.979037568	116.338920876	45.165011
58044	35222099	-7.437245	-2.459488	12.486149	1.533307	-5.373540	2.220458	39.979037588	116.338920893	45.166148
58045	35222124	-7.309955	-2.564512	12.589996	1.472333	-5.308146	2.177810	39.979037607	116.338920910	45.167310
58046	35222149	-7.274399	-2.540460	12.760250	1.404118	-5.258309	2.133943	39.979037626	116.338920927	45.168496
58047	35222174	-7.242939	-2.318003	12.896687	1.349689	-5.189855	2.076024	39.979037645	116.338920945	45.169710
58048	35222199	-7.312585	-2.338459	13.205076	1.286015	-5.120189	2.026773	39.979037663	116.338920962	45.170949
58049	35222224	-7.566489	-2.174288	13.461961	1.236207	-5.071282	1.962478	39.979037681	116.338920980	45.172216
58050	35222249	-7.741014	-2.142613	13.814434	1.183986	-5.012936	1.919952	39.979037699	116.338920998	45.173514
58051	35222274	-7.905952	-2.142591	14.220348	1.125511	-4.968057	1.880428	39.979037716	116.338921016	45.230060
58052	35222299	-7.896330	-2.111262	14.675452	1.069464	-4.912352	1.840191	39.979037733	116.338921035	45.231442
58053	35222324	-7.989625	-1.919202	15.189378	1.031901	-4.860085	1.788534	39.979037750	116.338921053	45.232863
58054	35222349	-8.145495	-1.717890	15.832426	1.001312	-4.808503	1.730109	39.979037766	116.338921072	45.234324
58055	35222374	-8.371867	-1.455497	16.659104	0.971722	-4.769082	1.655791	39.979037782	116.338921090	45.235852
58056	35222399	-8.842800	-1.249884	17.614371	0.938683	-4.732293	1.596244	39.979037798	116.338921109	45.237411
58057	35222424	-9.321312	-0.982319	18.930691	0.903042	-4.702796	1.541656	39.979037813	116.338921128	45.239029
58058	35222449	-9.981016	-0.647169	20.209355	0.874841	-4.692640	1.491623	39.979037828	116.338921147	45.240714
58059	35222474	-10.835477	-0.380534	21.462849	0.827175	-4.709257	1.454357	39.979037843	116.338921166	45.222071
58060	35222499	-11.612022	0.032469	22.596081	0.807045	-4.734519	1.401362	39.979037857	116.338921185	45.223910
58061	35222524	-12.063231	0.290092	23.607153	0.796527	-4.766958	1.345703	39.979037870	116.338921204	45.225840
58062	35222549	-12.911427	0.565946	24.324908	0.797879	-4.805676	1.288516	39.979037883	116.338921222	45.227868
58063	35222574	-13.634128	0.694032	24.686689	0.796455	-4.864293	1.249848	39.979037896	116.338921241	45.230020
58064	35222599	-14.086320	0.822657	24.953086	0.793209	-4.951476	1.219399	39.979037907	116.338921260	45.232253
58065	35222624	-14.259092	1.099906	24.844149	0.826682	-5.022608	1.177748	39.979037919	116.338921278	45.234589
58066	35222649	-14.371657	1.124329	24.556649	0.831793	-5.084313	1.146282	39.979037929	116.338921296	45.237028
58067	35222674	-14.590306	1.263443	24.181368	0.854537	-5.149406	1.118588	39.979037939	116.338921314	45.263928
58068	35222699	-15.147661	1.585429	23.527818	0.861671	-5.208852	1.104289	39.979037949	116.338921332	45.266572
58069	35222724	-15.393608	1.870389	22.802416	0.873334	-5.261513	1.093401	39.979037957	116.338921349	45.269309
58070	35222749	-15.822079	2.116100	21.888798	0.883345	-5.303834	1.081988	39.979037965	116.338921365	45.272132
58071	35222774	-16.344471	2.547792	20.945586	0.887252	-5.323585	1.080876	39.979037972	116.338921381	45.275008
58072	35222799	-16.633615	2.877860	19.946580	0.881601	-5.326578	1.088909	39.979037979	116.338921397	45.277987
58073	35222824	-16.794101	3.216544	18.858000	0.871145	-5.326304	1.103806	39.979037985	116.338921412	45.281034
58074	35222849	-17.109819	3.492709	17.847738	0.833402	-5.316180	1.143521	39.979037990	116.338921426	45.284141
58075	35222874	-17.266502	4.037512	16.813288	0.763422	-5.307198	1.203359	39.979037994	116.338921439	45.284277
58076	35222899	-17.364802	4.368263	15.988275	0.672654	-5.293083	1.281538	39.979037998	116.338921452	45.287486
58077	35222924	-17.676137	4.559996	14.759966	0.551610	-5.296475	1.388829	39.979038001	116.338921464	45.290736
58078	35222949	-17.396751	5.503952	13.812495	0.417835	-5.253339	1.515973	39.979038004	116.338921475	45.294020
58079	35222974	-17.351939	5.734245	12.829127	0.224312	-5.205997	1.695542	39.979038006	116.338921484	45.297298
58080	35222999	-18.735319	5.219703	10.677518	0.105592	-5.015469	1.827677	39.979038007	116.338921493	45.300626
58081	35223024	-20.463677	5.225910	9.059574	0.198588	-4.752726	1.939012	39.979038007	116.338921501	45.303958
58082	35223049	-21.018685	5.992932	9.104473	0.154097	-4.587974	2.032340	39.979038007	116.338921507	45.307287
58083	35223074	-21.288381	6.715873	7.916330	0.170303	-4.490198	2.123928	39.979038006	116.338921512	45.295428
58084	35223099	-21.489527	7.404016	7.517214	0.149700	-4.399858	2.180440	39.979038004	116.338921515	45.298731
58085	35223124	-20.996340	8.029867	7.308107	0.075743	-4.364011	2.255774	39.979038002	116.338921518	45.302020
58086	35223149	-21.271108	7.757976	4.867425	0.126451	-4.228697	2.329528	39.979037999	116.338921519	45.305286
58087	35223174	-22.773932	6.094859	2.269082	0.328474	-3.972089	2.290463	39.979037995	116.338921518	45.308442
58088	35223199	-23.553818	7.157025	2.352604	0.727816	-3.641821	2.146086	39.979037991	116.338921516	45.311613
58089	35223224	-23.115409	8.366716	4.042339	0.827294	-3.510650	2.016963	39.979037986	116.338921512	45.314738
58090	35223249	-23.555668	7.802204	1.879869	0.941136	-3.448653	1.900149	39.979037980	116.338921507	45.317814
58091	35223274	-23.542894	6.991042	1.092244	1.017019	-3.308125	1.805997	39.979037974	116.338921500	45.314381
58092	35223299	-23.263855	5.555365	0.843779	1.104894	-3.165907	1.789854	39.979037966	116.338921492	45.317326
58093	35223324	-23.059379	4.171679	-0.367913	1.225570	-3.008331	1.872415	39.979037958	116.338921482	45.320196
58094	35223349	-23.174667	2.657703	-0.501829	1.235838	-2.806545	2.016568	39.979037950	116.338921471	45.322984
58095	35223374	-24.038086	1.424838	-0.585259	1.222913	-2.664584	2.168562	39.979037940	116.338921459	45.325652
58096	35223399	-24.838766	0.958969	-1.080433	1.266254	-2.497252	2.260289	39.979037929	116.338921445	45.328260
58097	35223424	-24.992950	0.643414	-1.315448	1.280945	-2.325244	2.296126	39.979037918	116.338921430	45.330770
58098	35223449	-25.364575	0.021802	-1.810105	1.286740	-2.140937	2.330187	39.979037906	116.338921414	45.333179
58099	35223474	-25.764684	-0.640541	-2.054533	1.261888	-1.960160	2.363119	39.979037892	116.338921396	45.345227
58100	35223499	-26.167449	-1.417045	-2.319320	1.207973	-1.793016	2.392866	39.979037878	116.338921378	45.347424
58101	35223524	-26.619980	-2.076822	-2.542493	1.130411	-1.644313	2.421080	39.979037862	116.338921358	45.349506
58102	35223549	-27.112269	-2.634567	-2.823909	1.042759	-1.512163	2.430977	39.979037846	116.338921336	45.351468
58103	35223574	-27.503154	-2.916594	-3.218834	0.934301	-1.375090	2.397054	39.979037828	116.338921314	45.353284
58104	35223599	-27.498033	-3.065601	-3.086626	0.821391	-1.166570	2.358975	39.979037809	116.338921291	45.354994
58107	35223624	-27.791034	-3.899341	-3.191915	0.644804	-0.979264	2.323208	39.979037789	116.338921266	45.356577
58108	35223649	-28.302115	-4.541601	-3.651836	0.489190	-0.817853	2.277338	39.979037768	116.338921241	45.358027
58109	35223674	-28.750719	-5.285386	-3.851148	0.301478	-0.687114	2.221514	39.979041488	116.338923498	45.330845
58110	35223699	-29.078934	-5.987834	-4.115788	0.133778	-0.572848	2.136953	39.979041491	116.338923488	45.331907
58111	35223724	-29.168858	-6.654228	-4.395953	-0.033252	-0.457961	2.018846	39.979041493	116.338923477	45.332850
58112	35223749	-29.092068	-7.380324	-4.607128	-0.185716	-0.344265	1.869752	39.979041494	116.338923465	45.333671
58113	35223774	-29.135306	-8.311007	-4.917483	-0.317095	-0.235410	1.712537	39.979041492	116.338923453	45.334349
58114	35223799	-29.129226	-9.246008	-5.134672	-0.422716	-0.122520	1.537138	39.979041490	116.338923439	45.334914
58115	35223824	-28.931957	-10.177146	-5.248051	-0.496704	0.002147	1.363558	39.979041486	116.338923424	45.335348
58116	35223849	-28.551289	-11.026319	-5.309160	-0.535059	0.131910	1.195035	39.979041480	116.338923409	45.335647
58117	35223874	-28.147105	-11.781749	-5.380376	-0.555299	0.246778	1.025476	39.979041474	116.338923393	45.372687
58118	35223899	-27.843301	-12.288272	-5.389471	-0.545852	0.328554	0.859191	39.979041465	116.338923376	45.372727
58119	35223924	-27.523356	-12.339051	-5.513209	-0.498559	0.386079	0.649929	39.979041455	116.338923359	45.372631
58120	35223949	-26.833074	-12.064586	-5.771973	-0.405675	0.491379	0.408316	39.979041444	116.338923341	45.372397
58121	35223974	-25.953844	-11.566066	-5.434948	-0.271839	0.712690	0.181375	39.979041431	116.338923322	45.372032
58122	35223999	-25.089600	-11.467731	-4.371524	-0.203317	0.992157	0.053324	39.979041416	116.338923303	45.371532
58123	35224024	-24.392744	-10.922043	-3.433689	-0.192072	1.205454	-0.014079	39.979041401	116.338923283	45.370910
58124	35224049	-24.004290	-10.126986	-2.927850	-0.197646	1.356135	-0.043778	39.979041384	116.338923262	45.370171
58125	35224074	-23.727213	-8.917185	-2.046041	-0.205426	1.504151	-0.097701	39.979041366	116.338923241	45.385703
58126	35224099	-23.097315	-6.695687	-1.548439	-0.104322	1.667122	-0.278466	39.979041346	116.338923220	45.384760
58127	35224124	-21.642891	-5.240882	-0.878717	0.021024	1.950525	-0.384722	39.979041325	116.338923197	45.383722
58128	35224149	-20.935850	-5.725003	1.701491	-0.216219	2.066565	-0.338306	39.979041303	116.338923174	45.382604
58129	35224174	-20.239892	-2.167558	0.863541	0.008345	2.280276	-0.594311	39.979041281	116.338923150	45.381459
58130	35224199	-19.217472	0.865301	1.905516	0.143871	2.399203	-0.678578	39.979041257	116.338923126	45.380202
58131	35224224	-13.198175	26.143435	-28.192599	-1.204444	3.078967	0.465067	39.979041233	116.338923099	45.378820
58132	35224249	16.640804	4.178967	-16.822086	-4.031306	4.395615	0.976248	39.979041210	116.338923072	45.377268
58133	35224274	17.440944	8.046981	19.423778	-3.157473	3.649277	0.035991	39.979041190	116.338923049	45.390892
58134	35224299	9.495612	11.992041	20.243791	-3.204775	2.985495	-0.877686	39.979041169	116.338923022	45.389391
58135	35224324	6.179140	20.665794	13.633917	-4.084497	3.274035	-1.104695	39.979041148	116.338922995	45.387958
58136	35224349	9.396546	21.338631	-2.603774	-4.369186	3.811416	-0.694885	39.979041128	116.338922968	45.386532
58137	35224374	16.737403	11.578086	-18.748054	-3.489867	4.545178	-0.298211	39.979041111	116.338922939	45.384597
58138	35224399	21.380843	2.987078	-20.857323	-2.646451	5.043934	-0.089427	39.979041094	116.338922911	45.382901
58139	35224424	19.329857	-5.698622	-18.078836	-2.009702	5.585163	-0.145073	39.979041077	116.338922884	45.381024
58140	35224449	14.937800	-11.146592	-15.617549	-1.700915	6.313384	-0.335199	39.979041062	116.338922858	45.378972
58141	35224474	10.097977	-16.904060	-12.384603	-1.463798	7.006396	-0.501614	39.979041044	116.338922834	45.491171
58142	35224499	5.467700	-22.433235	-9.084607	-1.338262	7.415724	-0.768457	39.979041028	116.338922811	45.488809
58143	35224524	0.290134	-22.539507	-1.981598	-1.296136	7.501199	-1.007487	39.979041012	116.338922788	45.486324
58144	35224549	-7.100129	-20.198677	9.629800	-1.225031	7.379778	-1.203536	39.979040995	116.338922767	45.483777
58145	35224574	-17.190465	-14.804984	23.048007	-1.171810	7.302441	-1.228671	39.979040975	116.338922745	45.481622
58146	35224599	-26.680321	-12.434691	35.831841	-1.087304	7.105073	-1.073485	39.979040955	116.338922725	45.479217
58147	35224624	-30.220859	-12.148493	43.442778	-0.913983	6.638473	-0.925141	39.979040933	116.338922705	45.477001
58148	35224649	-28.368003	-13.678389	46.174200	-0.813004	6.106734	-0.884496	39.979040910	116.338922685	45.475008
58149	35224674	-28.829306	-14.019799	48.124540	-0.692304	5.686084	-0.895307	39.979040885	116.338922666	44.972497
58150	35224699	-28.072266	-13.547637	48.169381	-0.705811	5.163741	-0.888931	39.979040858	116.338922646	44.902631
58151	35224724	-24.385703	-14.214162	39.143612	-0.619028	4.606587	-0.920198	39.979040830	116.338922628	44.832983
58152	35224749	-18.552447	-12.423939	29.527838	-0.332834	4.263801	-0.974769	39.979040800	116.338922610	44.763493
58153	35224774	-12.305390	-7.377488	22.579503	-0.165471	4.064348	-1.000494	39.979040771	116.338922592	44.693831
58154	35224799	-8.297027	-1.781704	18.453926	-0.178982	3.984250	-0.912721	39.979040740	116.338922574	44.624516
58155	35224824	-5.357578	2.731478	16.603098	-0.149327	3.954197	-0.733540	39.979040709	116.338922556	44.555256
58156	35224849	-5.731149	7.173305	17.997204	-0.073979	4.007346	-0.486832	39.979040678	116.338922539	44.486051
58157	35224874	-5.863903	10.118628	20.137448	0.019261	4.026581	-0.234776	39.979040647	116.338922520	45.912992
58158	35224899	-8.814773	14.097952	24.137680	-0.163982	4.050075	0.055632	39.979040617	116.338922501	45.963668
58159	35224924	-12.911401	13.149142	24.863014	-0.429680	3.946005	0.219125	39.979040586	116.338922482	46.014460
58160	35224949	-15.729935	10.940550	21.511703	-0.405575	3.820414	0.166016	39.979040555	116.338922462	46.065366
58161	35224974	-16.516832	9.437542	20.045269	-0.364372	3.579936	0.037117	39.979040523	116.338922441	46.116343
58162	35224999	-16.191905	7.881678	18.360951	-0.344292	3.239240	-0.112911	39.979040492	116.338922420	46.167440
58163	35225024	-13.143452	9.965408	18.928117	-0.391407	2.908245	-0.140888	39.979040461	116.338922397	46.218623
58164	35225049	-11.053394	17.821112	28.159581	-1.247078	2.607156	0.253451	39.979040430	116.338922375	46.269921
58165	35225074	-18.645192	11.025817	37.498163	-1.726963	2.160077	0.429107	39.979040399	116.338922351	44.602750
58166	35225099	-19.281296	6.557195	29.769960	-1.522400	1.891923	0.208848	39.979040368	116.338922327	44.559630
58167	35225124	-14.727695	7.516450	26.814018	-1.567299	1.718211	0.043529	39.979040336	116.338922303	44.516654
58168	35225149	-13.683366	5.810501	24.673895	-1.748888	1.401762	-0.084970	39.979040305	116.338922278	44.473803
58169	35225174	-11.964474	1.586010	18.317889	-1.644282	1.191735	-0.239784	39.979040273	116.338922254	44.430909
58170	35225199	-8.528492	-1.385198	14.070806	-1.343311	1.054704	-0.529714	39.979040241	116.338922229	44.388207
58171	35225224	-4.880380	-2.443468	14.508560	-1.059956	0.853570	-0.849160	39.979040208	116.338922204	44.345539
58172	35225249	-3.680706	-2.665567	14.673992	-0.749159	0.621276	-1.024922	39.979040176	116.338922179	44.302901
58173	35225274	-2.810303	-4.874096	16.361840	-0.420489	0.490286	-0.967273	39.979040144	116.338922156	45.612487
58174	35225299	-2.596371	-5.497894	16.186241	-0.361838	0.492151	-0.700803	39.979040111	116.338922133	45.626897
58175	35225324	-2.192843	-5.486266	15.613295	-0.455050	0.629857	-0.293098	39.979040078	116.338922110	45.641339
58176	35225349	-4.172132	-5.042402	18.277265	-0.516868	0.687581	0.040147	39.979040045	116.338922087	45.655821
58177	35225374	-7.590481	-1.094813	19.015553	-0.447385	0.569466	0.166221	39.979040012	116.338922065	45.670417
58178	35225399	-7.810248	1.173053	17.242975	-0.325035	0.460701	0.178500	39.979039979	116.338922043	45.685017
58179	35225424	-6.473787	2.841071	15.653112	-0.223126	0.375603	0.159255	39.979039945	116.338922021	45.699668
58180	35225449	-6.265622	4.323564	14.796283	-0.213094	0.258780	0.142325	39.979039912	116.338921999	45.714364
58181	35225474	-4.808694	3.749811	11.444256	-0.169632	0.214171	0.108072	39.979039879	116.338921976	44.952700
58182	35225499	-2.807587	3.546591	9.699655	-0.166699	0.205584	0.083740	39.979039846	116.338921954	44.940910
58183	35225524	-2.260576	3.671861	9.300128	-0.252210	0.161909	0.077863	39.979039813	116.338921931	44.929123
58184	35225549	-2.238757	2.496997	9.216357	-0.308694	0.108080	0.047340	39.979039780	116.338921909	44.917336
58185	35225574	-1.967837	1.574696	10.004905	-0.262967	0.097884	-0.014694	39.979039748	116.338921887	44.905546
58186	35225599	-1.522694	1.125762	10.799075	-0.200015	0.126004	-0.086159	39.979039715	116.338921864	44.893764
58187	35225624	-1.626624	1.256663	11.132030	-0.131001	0.193496	-0.138184	39.979039682	116.338921842	44.881988
58188	35225649	-2.461340	1.205041	10.970483	-0.086030	0.197873	-0.166291	39.979039650	116.338921820	44.870220
58189	35225674	-2.894608	0.446199	10.772122	-0.085537	0.164463	-0.139999	39.979039617	116.338921798	45.397902
58190	35225699	-2.705420	0.471736	10.592736	0.025342	0.148541	-0.153662	39.979039585	116.338921776	45.401669
58191	35225724	-2.361445	0.646395	10.928725	0.040978	0.146922	-0.132939	39.979039553	116.338921754	45.405443
58192	35225749	-2.387496	0.346021	10.664334	0.047901	0.156237	-0.094816	39.979039520	116.338921733	45.409224
58193	35225774	-2.381247	0.384224	10.393099	0.076774	0.172463	-0.062479	39.979039488	116.338921711	45.413007
58194	35225799	-2.289483	0.908564	10.381593	0.095509	0.192963	-0.033797	39.979039456	116.338921690	45.416798
58195	35225824	-2.308923	1.222088	10.072702	0.087407	0.195608	-0.011089	39.979039423	116.338921668	45.420593
58196	35225849	-2.394161	1.570620	9.640144	0.081855	0.189793	-0.002414	39.979039391	116.338921647	45.424390
58197	35225874	-2.272290	1.725176	9.501075	0.102374	0.195460	0.001198	39.979039359	116.338921626	45.565603
58198	35225899	-2.355553	1.720232	9.733792	0.092658	0.180933	-0.002198	39.979039327	116.338921604	45.572818
58199	35225924	-2.438529	1.586638	9.766531	0.103974	0.175019	-0.002480	39.979039295	116.338921583	45.580036
58200	35225949	-2.338209	1.487259	9.826139	0.107147	0.167240	-0.002505	39.979039264	116.338921562	45.587255
58201	35225974	-2.219989	1.396135	9.897736	0.109027	0.160052	0.002782	39.979039232	116.338921541	45.594476
58202	35225999	-2.316830	1.243252	9.941063	0.115912	0.146435	0.002904	39.979039200	116.338921520	45.601700
58203	35226024	-2.341609	1.298256	9.965167	0.124216	0.148046	0.013444	39.979039168	116.338921499	45.608926
58204	35226049	-2.278265	1.254130	9.966393	0.131059	0.151490	0.027490	39.979039137	116.338921478	45.616154
58205	35226074	-2.279590	1.225471	9.921064	0.132407	0.160617	0.040664	39.979039105	116.338921457	45.292674
58206	35226099	-2.239781	1.197765	9.958248	0.144196	0.164196	0.047721	39.979039074	116.338921437	45.292662
58208	35226124	-2.315403	1.226914	9.901096	0.157346	0.173607	0.056094	39.979039043	116.338921416	45.292653
58210	35226149	-2.397680	1.285155	9.781549	0.172427	0.179029	0.060533	39.979039011	116.338921395	45.292646
58211	35226174	-2.441404	1.420347	9.702135	0.174463	0.175628	0.069770	39.979043624	116.338922832	45.365075
58212	35226199	-2.426042	1.349209	9.595500	0.184040	0.167730	0.071417	39.979043656	116.338922836	45.365214
58213	35226224	-2.300125	1.487455	9.445745	0.219797	0.166903	0.037584	39.979043688	116.338922839	45.365354
58214	35226249	-2.312841	1.091085	9.375254	0.256506	0.168753	0.046027	39.979043720	116.338922842	45.365492
58215	35226274	-2.339563	1.127598	9.582869	0.219840	0.155850	0.079060	39.979043752	116.338922846	45.300056
58216	35226299	-2.152362	1.366146	9.829808	0.226650	0.172853	0.097425	39.979043784	116.338922849	45.300183
58217	35226324	-2.085546	1.216157	9.451583	0.219148	0.184596	0.107338	39.979043816	116.338922853	45.300311
58218	35226349	-2.025692	1.195097	9.182869	0.226419	0.197041	0.110650	39.979043848	116.338922856	45.300436
58219	35226374	-1.953580	1.500672	9.198527	0.260963	0.215623	0.103694	39.979043881	116.338922860	45.300552
58220	35226399	-1.874400	1.291924	9.410718	0.258935	0.240661	0.114074	39.979043913	116.338922864	45.300672
58221	35226424	-1.773780	1.237089	9.346772	0.252184	0.249003	0.120547	39.979043946	116.338922868	45.300789
58222	35226449	-1.804712	1.415494	9.130515	0.238049	0.251634	0.126143	39.979043979	116.338922872	45.300903
58223	35226474	-1.696979	1.570898	9.159027	0.244056	0.250304	0.121298	39.979044012	116.338922876	45.332384
58224	35226499	-1.853872	1.595998	9.068569	0.232135	0.244604	0.117064	39.979044045	116.338922880	45.332497
58225	35226524	-1.892481	1.731975	9.152793	0.237994	0.256890	0.114337	39.979044078	116.338922884	45.332606
58226	35226549	-1.513613	1.785291	9.224978	0.244188	0.287849	0.106227	39.979044111	116.338922888	45.332712
58227	35226574	-1.326880	1.381843	9.269002	0.249662	0.317481	0.095463	39.979044144	116.338922893	45.332813
58228	35226599	-1.554554	1.120554	9.228111	0.257325	0.348897	0.091158	39.979044177	116.338922897	45.332910
58229	35226624	-1.696332	1.291054	9.259224	0.251840	0.368704	0.095291	39.979044211	116.338922902	45.333004
58230	35226649	-1.860527	1.455517	9.452567	0.234705	0.387107	0.117661	39.979044245	116.338922906	45.333094
58231	35226674	-2.315148	1.807455	9.595774	0.242646	0.398815	0.103819	39.979044278	116.338922911	45.303231
58232	35226699	-2.238970	2.092236	9.608732	0.245965	0.406069	0.090234	39.979044312	116.338922916	45.303315
58233	35226724	-2.207853	2.206041	9.347104	0.218757	0.402296	0.089465	39.979044346	116.338922921	45.303398
58234	35226749	-2.483082	2.394829	9.303648	0.209798	0.408872	0.077389	39.979044380	116.338922925	45.303481
58235	35226774	-2.614145	2.634877	9.513236	0.185859	0.398487	0.055121	39.979044414	116.338922930	45.303565
58236	35226799	-3.089039	2.863009	9.291495	0.183950	0.402360	0.005706	39.979044448	116.338922935	45.303650
58237	35226824	-2.089393	2.007054	9.176298	0.221127	0.392494	-0.017954	39.979044483	116.338922940	45.303734
58238	35226849	-2.283717	2.825399	9.756012	0.230183	0.448699	-0.064252	39.979044517	116.338922944	45.303817
58239	35226874	-2.780988	2.034624	9.855847	0.112225	0.380167	-0.020088	39.979044552	116.338922949	45.292946
58240	35226899	-3.007143	1.927109	8.579417	0.052074	0.291482	-0.013372	39.979044586	116.338922954	45.293029
58241	35226924	-2.232542	2.720506	9.062676	0.142160	0.321126	-0.087602	39.979044621	116.338922959	45.293109
58242	35226949	-2.304936	2.409502	9.741507	0.076503	0.314201	-0.095202	39.979044656	116.338922964	45.293189
58243	35226974	-2.890646	2.107775	9.543234	0.046912	0.305924	-0.094023	39.979044691	116.338922969	45.293280
58244	35226999	-2.945399	2.252437	9.487790	0.040931	0.292662	-0.100774	39.979044726	116.338922974	45.293363
58245	35227024	-2.688949	2.087791	9.346383	0.018938	0.269504	-0.115281	39.979044761	116.338922978	45.293447
58246	35227049	-2.319449	1.546980	8.948409	0.006692	0.269397	-0.111912	39.979044796	116.338922983	45.293528
58247	35227074	-2.349944	1.372972	9.493191	0.011547	0.277194	-0.118846	39.979044832	116.338922988	45.284808
58248	35227099	-2.384562	1.713322	9.743055	0.019588	0.277506	-0.122796	39.979044867	116.338922993	45.284885
58249	35227124	-2.241721	1.721579	9.362704	0.013909	0.291704	-0.117828	39.979044903	116.338922999	45.284962
58250	35227149	-2.131855	1.804054	9.022531	0.012682	0.303796	-0.129637	39.979044938	116.338923004	45.285037
58251	35227174	-2.258841	1.916280	9.191786	0.015225	0.313005	-0.135089	39.979044974	116.338923009	45.285103
58252	35227199	-2.430406	1.742333	9.348064	0.001766	0.303313	-0.136448	39.979045010	116.338923014	45.285173
58253	35227224	-2.437982	1.441928	9.441497	0.006315	0.306837	-0.145076	39.979045046	116.338923020	45.285242
58254	35227249	-2.272660	1.285328	9.366566	0.020590	0.313969	-0.149480	39.979045082	116.338923025	45.285311
58255	35227274	-2.045252	1.208392	9.322564	0.029208	0.326487	-0.146087	39.979045118	116.338923031	45.267260
58256	35227299	-2.322069	1.377623	9.342921	0.029638	0.344093	-0.136133	39.979045154	116.338923036	45.267318
58257	35227324	-2.385381	1.405167	9.334997	0.037895	0.352767	-0.138842	39.979045190	116.338923042	45.267374
58258	35227349	-2.492580	1.472975	9.247365	0.044096	0.358044	-0.136480	39.979045227	116.338923048	45.267428
58259	35227374	-2.296482	1.513341	9.122558	0.042340	0.364393	-0.127895	39.979045263	116.338923054	45.267478
58260	35227399	-2.331202	1.447051	9.184856	0.044709	0.369333	-0.123242	39.979045299	116.338923059	45.267527
58261	35227424	-2.427315	1.622085	9.120154	0.062540	0.387041	-0.121926	39.979045336	116.338923065	45.267574
58262	35227449	-2.386410	1.521010	9.272873	0.053351	0.398140	-0.109395	39.979045373	116.338923071	45.267619
58263	35227474	-2.498737	1.611415	9.028292	0.048545	0.390726	-0.105669	39.979045409	116.338923078	45.247607
58264	35227499	-2.260412	1.527362	9.040177	0.046690	0.388867	-0.096448	39.979045446	116.338923084	45.247638
58265	35227524	-2.282282	1.633496	9.004594	0.045249	0.389618	-0.101042	39.979045483	116.338923090	45.247666
58266	35227549	-2.353932	1.780392	9.103473	0.036640	0.401528	-0.092652	39.979045520	116.338923096	45.247690
58267	35227574	-2.394406	2.280298	9.045239	0.058623	0.406235	-0.121155	39.979045558	116.338923102	45.247714
58268	35227599	-2.579255	1.550885	8.663608	0.044258	0.395089	-0.105523	39.979045595	116.338923109	45.247732
58269	35227624	-2.545116	1.810900	9.023641	0.050917	0.393660	-0.112113	39.979045632	116.338923115	45.247746
58270	35227649	-2.378258	2.046675	9.639124	-0.019631	0.371110	-0.116904	39.979045670	116.338923122	45.247760
58271	35227674	-2.600843	1.730860	9.124439	-0.015873	0.376101	-0.127500	39.979045707	116.338923128	45.182214
58272	35227699	-2.717315	1.825048	8.959721	0.013925	0.386471	-0.152813	39.979045745	116.338923135	45.182194
58273	35227724	-2.488839	1.817808	9.050290	-0.003988	0.385110	-0.149241	39.979045783	116.338923141	45.182171
58274	35227749	-2.883969	1.847691	9.525088	-0.010242	0.371450	-0.156324	39.979045820	116.338923148	45.182147
58275	35227774	-3.106479	1.804375	9.708363	-0.032358	0.355241	-0.154112	39.979045858	116.338923155	45.182135
58276	35227799	-3.274533	1.645283	9.594669	-0.014304	0.344822	-0.158297	39.979045896	116.338923161	45.182116
58277	35227824	-3.546115	1.704187	9.687839	0.009131	0.323157	-0.172856	39.979045934	116.338923168	45.182099
58278	35227849	-3.503583	1.491055	9.609990	0.031710	0.304224	-0.168076	39.979045972	116.338923175	45.182086
58279	35227874	-3.489573	1.516127	9.539560	0.038061	0.275248	-0.171267	39.979046011	116.338923182	45.168933
58280	35227899	-3.350491	1.454084	9.556738	0.041360	0.256118	-0.156848	39.979046049	116.338923189	45.168918
58281	35227924	-3.440480	1.432893	9.704291	0.044334	0.238305	-0.142388	39.979046087	116.338923196	45.168906
58282	35227949	-3.513071	1.591579	9.611645	0.053196	0.226614	-0.136666	39.979046125	116.338923203	45.168897
58283	35227974	-3.388652	1.610036	9.449450	0.072847	0.209357	-0.138120	39.979046164	116.338923210	45.168890
58284	35227999	-3.233995	1.658421	9.383212	0.073844	0.188142	-0.143798	39.979046202	116.338923217	45.168884
58285	35228024	-3.100364	1.433217	9.237556	0.076915	0.169550	-0.130954	39.979046241	116.338923224	45.168880
58286	35228049	-3.260583	1.515030	9.450586	0.092407	0.164512	-0.132091	39.979046280	116.338923231	45.168875
58287	35228074	-3.118703	1.506691	9.461270	0.099942	0.158605	-0.129379	39.979046318	116.338923238	45.153298
58288	35228099	-2.952974	1.584144	9.365835	0.107859	0.159654	-0.126928	39.979046357	116.338923245	45.153287
58289	35228124	-2.998158	1.496723	9.184619	0.109856	0.162435	-0.122651	39.979046396	116.338923253	45.153275
58290	35228149	-3.014359	1.823907	9.262867	0.113191	0.159079	-0.126763	39.979046435	116.338923260	45.153262
58291	35228174	-2.941129	1.704833	9.100209	0.097518	0.148270	-0.119284	39.979046474	116.338923268	45.153247
58292	35228199	-2.739716	1.821740	9.095406	0.096470	0.139810	-0.111118	39.979046513	116.338923275	45.153233
58293	35228224	-2.582762	1.555158	8.982865	0.073335	0.139345	-0.110663	39.979046552	116.338923283	45.153215
58294	35228249	-2.561984	1.588385	8.948384	0.082885	0.153974	-0.113173	39.979046591	116.338923290	45.153195
58295	35228274	-2.533051	1.688530	9.020575	0.092696	0.190009	-0.118645	39.979046631	116.338923298	45.139858
58296	35228299	-2.260948	1.769075	8.805510	0.076963	0.213096	-0.117329	39.979046670	116.338923305	45.139822
58297	35228324	-2.257411	1.653513	8.436679	0.056025	0.229692	-0.113432	39.979046710	116.338923313	45.139780
58298	35228349	-2.323572	1.809965	8.548895	0.038978	0.241518	-0.107241	39.979046749	116.338923321	45.139731
58299	35228374	-2.259005	1.897571	8.672908	0.017679	0.248240	-0.104588	39.979046789	116.338923329	45.139677
58300	35228399	-2.169088	1.872040	8.497306	-0.011963	0.277781	-0.095806	39.979046829	116.338923337	45.139616
58301	35228424	-2.196503	1.813225	8.415955	-0.029573	0.315729	-0.093846	39.979046869	116.338923345	45.139549
58302	35228449	-2.583513	1.854136	8.908035	-0.018233	0.352426	-0.108175	39.979046909	116.338923353	45.139477
58303	35228474	-2.576424	1.990443	8.884537	-0.026298	0.374471	-0.111268	39.979046949	116.338923361	45.111606
58304	35228499	-2.343005	1.803044	8.572756	-0.049753	0.415725	-0.101754	39.979046990	116.338923369	45.111506
58305	35228524	-1.917728	1.620839	8.692134	-0.041479	0.435947	-0.116487	39.979047030	116.338923377	45.111400
58306	35228549	-2.185519	1.712909	8.379744	-0.051092	0.468840	-0.128524	39.979047070	116.338923385	45.111286
58307	35228574	-2.440782	1.389360	9.515867	-0.041510	0.466624	-0.119802	39.979047111	116.338923394	45.111176
58308	35228599	-3.061499	1.193860	9.570714	-0.084110	0.389479	-0.133657	39.979047152	116.338923402	45.111058
58310	35228624	-2.795162	1.763113	9.706968	0.005214	0.422087	-0.154172	39.979047193	116.338923411	45.110942
58312	35228649	-2.515275	1.280878	9.430334	-0.052713	0.413217	-0.140674	39.979047234	116.338923419	45.110825
58313	35228674	-2.614832	1.458059	8.463712	-0.068979	0.406891	-0.120297	39.979046210	116.338922632	45.153516
58314	35228699	-2.367884	1.698024	9.084476	-0.006507	0.486532	-0.146209	39.979046239	116.338922635	45.153575
58315	35228724	-2.221081	1.687564	9.276045	0.055593	0.583431	-0.176275	39.979046269	116.338922638	45.153631
58316	35228749	-1.799345	1.893285	9.425997	0.079428	0.700843	-0.190023	39.979046298	116.338922642	45.153685
58317	35228774	-2.060340	1.515857	8.824823	0.069371	0.764236	-0.173490	39.979046328	116.338922646	45.153733
58318	35228799	-2.644185	1.329422	8.637636	0.076640	0.787488	-0.164317	39.979046357	116.338922649	45.153779
58319	35228824	-2.916605	1.605248	9.201017	0.050779	0.792122	-0.149345	39.979046387	116.338922653	45.153823
58320	35228849	-2.707475	1.922223	9.464141	0.023788	0.794620	-0.154953	39.979046417	116.338922657	45.153867
58321	35228874	-2.000428	2.001426	8.870113	0.032395	0.828424	-0.171317	39.979046447	116.338922661	45.143935
58322	35228899	-1.395313	2.017839	8.873273	0.081712	0.897485	-0.215940	39.979046477	116.338922664	45.143969
58323	35228924	-1.874295	1.746203	9.045259	0.119413	0.943978	-0.263763	39.979046507	116.338922668	45.143998
58324	35228949	-2.536575	2.001362	8.924569	0.142661	0.969135	-0.289098	39.979046537	116.338922672	45.144023
58325	35228974	-2.863507	1.607726	8.903186	0.091538	0.963973	-0.274253	39.979046567	116.338922676	45.144052
58326	35228999	-2.841088	1.498709	8.631342	0.061092	0.920096	-0.265811	39.979046597	116.338922680	45.144072
58327	35229024	-2.673720	1.782311	8.600464	0.025937	0.888452	-0.262034	39.979046628	116.338922685	45.144087
58328	35229049	-2.307604	1.770699	8.733585	0.002423	0.888476	-0.264271	39.979046658	116.338922689	45.144097
58329	35229074	-2.078943	1.781666	8.755112	-0.006996	0.910223	-0.278975	39.979046689	116.338922693	45.120893
58330	35229099	-2.021204	1.700515	8.748136	0.021456	0.993693	-0.303982	39.979046719	116.338922697	45.120885
58331	35229124	-2.044466	1.595886	9.131031	0.064988	1.095127	-0.328311	39.979046750	116.338922702	45.120872
58332	35229149	-2.212045	1.569114	8.936475	0.091673	1.221425	-0.349052	39.979046781	116.338922706	45.120856
58333	35229174	-2.494985	1.446426	9.022484	0.155628	1.349764	-0.373575	39.979046812	116.338922711	45.120839
58334	35229199	-2.806221	1.825830	9.150013	0.197746	1.453562	-0.387641	39.979046842	116.338922716	45.120817
58335	35229224	-3.000831	1.392545	9.037871	0.187791	1.520334	-0.366552	39.979046873	116.338922720	45.120794
58336	35229249	-3.216574	1.120545	9.357924	0.152141	1.503148	-0.354702	39.979046905	116.338922725	45.120769
58337	35229274	-4.009456	0.987456	10.039315	0.234708	1.424188	-0.373112	39.979046936	116.338922730	45.100353
58338	35229299	-4.208509	1.435302	9.814035	0.263542	1.370045	-0.377199	39.979046967	116.338922735	45.100330
58339	35229324	-3.958138	1.369661	9.361782	0.271091	1.406037	-0.353390	39.979046998	116.338922740	45.100311
58340	35229349	-3.841841	1.693038	10.110604	0.307723	1.527010	-0.291652	39.979047029	116.338922745	45.100297
58341	35229374	-3.771501	0.473254	10.844760	0.220502	1.555146	-0.246106	39.979047060	116.338922751	45.100298
58342	35229399	-3.056336	2.268217	9.024177	0.379664	1.687500	-0.266800	39.979047092	116.338922756	45.100297
58343	35229424	-2.838389	1.177004	9.637624	0.354971	1.745056	-0.263854	39.979047123	116.338922761	45.100294
58344	35229449	-4.567759	1.245068	9.633064	0.396030	1.727581	-0.254299	39.979047154	116.338922767	45.100295
58345	35229474	-4.888299	1.807726	10.362987	0.438944	1.735023	-0.248119	39.979047186	116.338922772	45.115935
58346	35229499	-4.032116	1.870795	10.003138	0.364144	1.690339	-0.218485	39.979047217	116.338922778	45.115959
58347	35229524	-3.728686	1.614741	8.591255	0.336311	1.666492	-0.207532	39.979047249	116.338922783	45.115986
58348	35229549	-3.428661	1.744376	8.469358	0.331272	1.682465	-0.223309	39.979047280	116.338922789	45.116010
58349	35229574	-3.196079	1.642272	8.522492	0.283355	1.744416	-0.228051	39.979047312	116.338922795	45.116013
58350	35229599	-3.268537	1.974805	9.466811	0.353058	1.918240	-0.258102	39.979047344	116.338922800	45.116031
58351	35229624	-1.618262	1.268477	9.744242	0.413088	2.207600	-0.295912	39.979047376	116.338922806	45.116049
58352	35229649	0.042504	1.077794	9.310544	0.508092	2.497040	-0.356284	39.979047408	116.338922812	45.116059
58353	35229674	-2.192136	1.648179	8.067171	0.532351	2.748610	-0.385606	39.979047440	116.338922819	45.097353
58354	35229699	-4.164026	2.336163	8.132558	0.434984	2.849236	-0.353044	39.979047472	116.338922825	45.097338
58355	35229724	-3.538132	2.431236	8.454607	0.381095	2.770823	-0.349266	39.979047504	116.338922831	45.097320
58356	35229749	-1.291910	0.543977	7.298831	0.392848	2.872532	-0.401602	39.979047537	116.338922838	45.097292
58357	35229774	-0.305221	0.497969	8.206159	0.438550	3.135043	-0.478589	39.979047570	116.338922845	45.097216
58358	35229799	0.670623	1.009729	8.524186	0.439507	3.427889	-0.499563	39.979047602	116.338922852	45.097151
58359	35229824	-0.713767	1.753422	8.154213	0.288266	3.832311	-0.456208	39.979047635	116.338922859	45.097070
58360	35229849	-4.022941	2.491523	8.614892	0.186329	4.164447	-0.415731	39.979047668	116.338922866	45.096980
58361	35229874	-2.706872	2.461827	8.474495	0.098920	4.265678	-0.470511	39.979047702	116.338922873	45.130718
58362	35229899	-0.572016	3.585488	7.934697	0.364954	4.471783	-0.772170	39.979047735	116.338922880	45.130630
58363	35229924	-1.998817	2.440051	10.030272	0.490606	4.802736	-0.992352	39.979047769	116.338922888	45.130532
58364	35229949	-8.825605	1.724769	12.312553	0.683545	4.886975	-1.284867	39.979047802	116.338922895	45.130451
58365	35229974	-5.671845	2.445037	10.721908	0.927569	4.744318	-1.468981	39.979047836	116.338922903	45.130458
58366	35229999	-0.320259	0.037832	9.325213	0.955538	4.935749	-1.518941	39.979047870	116.338922911	45.130401
58367	35230024	1.453056	2.718058	12.690619	0.951958	5.100270	-1.621554	39.979047904	116.338922919	45.130335
58368	35230049	-1.788208	2.985522	11.589779	0.922835	5.290073	-1.790318	39.979047939	116.338922927	45.130268
58369	35230074	-14.026187	4.980281	10.805572	1.093884	5.588693	-1.969626	39.979047973	116.338922935	45.130064
58370	35230099	-23.073164	-0.626637	9.579244	0.776289	5.634039	-1.938567	39.979048008	116.338922943	45.130088
58371	35230124	14.611863	-1.020695	2.077833	1.242526	5.883166	-2.277339	39.979048042	116.338922951	45.130094
58372	35230149	10.334517	4.579617	20.174288	1.708889	6.369347	-2.536650	39.979048077	116.338922961	45.130037
58373	35230174	10.250197	0.867003	19.534309	1.697793	6.740543	-2.898724	39.979048115	116.338922973	45.129871
58374	35230199	10.935142	0.547598	15.233378	2.257848	7.432737	-3.331816	39.979048152	116.338922984	45.129767
58375	35230224	-5.339033	2.358252	12.657735	2.148613	7.775839	-3.479403	39.979048189	116.338922996	45.129651
58376	35230249	-7.350546	4.322910	8.913889	1.903205	8.056804	-3.622847	39.979048227	116.338923008	45.129550
58377	35230274	-4.599072	3.292245	8.311109	1.928960	8.388413	-3.988607	39.979048264	116.338923019	45.310676
58378	35230299	-3.271084	5.603560	10.721150	2.013255	8.667981	-4.333584	39.979048302	116.338923031	45.339879
58379	35230324	-1.532308	6.809092	11.384587	1.800300	8.901239	-4.598681	39.979048340	116.338923043	45.369079
58380	35230349	-4.408498	4.846965	11.169063	1.907941	9.158500	-4.954094	39.979048379	116.338923056	45.398279
58381	35230374	-5.111484	1.782426	13.951066	2.280818	9.310377	-5.341876	39.979048418	116.338923069	45.427517
58382	35230399	-3.192247	-1.513934	12.553064	2.849168	9.511411	-5.843922	39.979048458	116.338923082	45.456735
58383	35230424	-1.111371	4.755927	12.729888	3.068700	9.732092	-6.098239	39.979048497	116.338923096	45.485946
58384	35230449	-10.913285	10.175131	20.119875	2.521739	9.782318	-6.026205	39.979048538	116.338923110	45.515186
58385	35230474	-12.818044	4.017749	9.479393	1.772848	10.003326	-6.010755	39.979048579	116.338923124	44.901484
58386	35230499	-10.781911	9.733394	7.567144	1.153852	10.104931	-5.951158	39.979048620	116.338923138	44.858628
58387	35230524	-8.554501	19.689943	13.053300	0.367431	10.130202	-5.667586	39.979048662	116.338923152	44.815799
58388	35230549	-2.478418	16.894699	16.189465	-0.946580	10.095281	-5.684880	39.979048706	116.338923166	44.772984
58389	35230574	-1.693998	10.619398	10.396143	-1.303475	10.127028	-6.086030	39.979048751	116.338923181	44.730069
58390	35230599	-3.309687	7.903005	13.245473	-1.158311	10.119317	-6.492322	39.979048796	116.338923195	44.687224
58391	35230624	-1.948574	7.917198	24.168565	-0.818347	10.114547	-6.782907	39.979048841	116.338923210	44.644375
58392	35230649	2.125099	8.810070	29.650766	-0.658929	10.109436	-7.044009	39.979048888	116.338923226	44.601520
58393	35230674	-6.814726	6.392017	19.148517	-0.723415	10.092473	-7.355632	39.979048937	116.338923244	44.906063
58394	35230699	-11.527849	5.105119	7.253843	-1.170569	10.101992	-7.554817	39.979048986	116.338923261	44.900645
58395	35230724	-2.984172	6.116333	7.471453	-1.415808	10.092969	-7.999444	39.979049035	116.338923279	44.895219
58396	35230749	-6.523206	10.331967	16.084074	-0.709406	10.086592	-8.348810	39.979049085	116.338923297	44.889773
58397	35230774	-2.385401	11.916557	18.781290	0.118251	10.082588	-8.677666	39.979049137	116.338923316	44.884248
58398	35230799	1.513930	8.761313	10.799263	-0.177797	10.082395	-8.862928	39.979049189	116.338923335	44.878734
58399	35230824	-10.352098	4.097579	-1.992320	-1.127477	10.077659	-8.929708	39.979049241	116.338923354	44.873186
58400	35230849	-40.168771	10.744351	14.138187	-1.690406	10.082786	-8.218052	39.979049294	116.338923372	44.867726
58401	35230874	-59.353521	18.009190	43.062571	-1.314829	10.105898	-6.891855	39.979049352	116.338923393	44.946083
58402	35230899	-60.233136	23.138021	59.828059	-0.939290	9.578822	-5.466555	39.979049410	116.338923413	44.950145
58403	35230924	-56.812479	24.509528	67.396297	-0.865100	6.873835	-4.302363	39.979049472	116.338923436	44.954495
58404	35230949	-54.071392	25.789103	69.300816	0.102545	4.155843	-3.533425	39.979049537	116.338923461	44.959105
58405	35230974	-48.713682	28.982826	71.090046	1.113836	2.009709	-2.885285	39.979049607	116.338923490	44.963783
58406	35230999	-38.754535	33.088110	73.217984	1.732946	0.142326	-2.166195	39.979049680	116.338923520	44.968791
58407	35231024	-29.015158	34.137053	70.426495	2.110494	-1.400778	-1.435811	39.979049758	116.338923554	44.973904
58408	35231049	-23.141489	34.008245	64.291574	2.356938	-2.449458	-0.761516	39.979049839	116.338923590	44.979077
58409	35231074	-20.095422	34.864404	59.385721	1.943261	-2.930162	-0.121105	39.979049923	116.338923627	44.361529
58410	35231099	-14.441855	34.117848	54.936272	1.225059	-2.906023	0.416226	39.979050011	116.338923667	44.297915
58413	35231124	-8.730560	33.582925	51.303477	1.016912	-2.263623	0.568461	39.979050103	116.338923709	44.234276
58414	35231149	-6.221301	33.867899	45.596074	0.979733	-1.849622	0.699253	39.979050197	116.338923753	44.170587
58415	35231174	-6.187971	33.779883	39.036260	0.506159	-2.075437	1.158671	39.979048716	116.338922596	44.974366
58416	35231199	-5.809677	29.874053	31.544049	-0.219244	-2.752711	1.750200	39.979048740	116.338922600	44.974303
58417	35231224	-4.205262	25.609736	24.951957	-0.837020	-3.518805	2.248833	39.979048767	116.338922604	44.974185
58418	35231249	-2.482167	21.888344	18.879309	-1.116526	-4.128403	2.542056	39.979048796	116.338922609	44.974004
58419	35231274	-0.539376	19.525381	14.321841	-1.213151	-4.443921	2.582013	39.979048824	116.338922613	44.663540
58420	35231299	1.849259	18.765369	11.556399	-1.251871	-4.500009	2.413582	39.979048855	116.338922618	44.663204
58421	35231324	4.315461	17.970635	10.489790	-1.167805	-4.475792	2.143833	39.979048888	116.338922623	44.662772
58422	35231349	5.484929	16.912275	7.987193	-1.080962	-4.347544	1.765937	39.979048921	116.338922628	44.662234
58423	35231374	5.265920	13.956452	5.512241	-1.192265	-4.200616	1.456597	39.979048955	116.338922633	44.661560
58424	35231399	4.448248	10.263688	2.693333	-1.362255	-4.068494	1.288397	39.979048990	116.338922638	44.660812
58425	35231424	4.959330	7.834903	-1.075080	-1.199463	-3.941148	1.214272	39.979049026	116.338922642	44.659964
58426	35231449	5.128602	4.110693	-6.413446	-0.408916	-3.806991	1.205734	39.979049061	116.338922647	44.659012
58427	35231474	3.733112	2.302808	-4.151098	-0.116979	-3.711877	1.136824	39.979049096	116.338922650	44.617483
58428	35231499	4.328354	4.891497	1.344859	-0.273165	-3.853338	1.133925	39.979049132	116.338922654	44.616341
58429	35231524	5.517487	4.768114	1.055480	-0.423244	-3.914514	1.240398	39.979049168	116.338922658	44.615103
58430	35231549	6.532437	4.009304	0.828610	-0.621871	-3.741563	1.346793	39.979049204	116.338922662	44.613764
58431	35231574	6.822201	2.997583	0.779298	-0.582433	-3.528261	1.408605	39.979049240	116.338922666	44.612299
58432	35231599	6.140393	2.886851	1.320497	-0.552741	-3.351575	1.434276	39.979049277	116.338922670	44.610754
58433	35231624	4.936982	3.058885	1.740624	-0.462388	-3.267198	1.443729	39.979049313	116.338922674	44.609114
58434	35231649	4.128808	3.003283	2.350856	-0.367632	-3.237857	1.448012	39.979049350	116.338922678	44.607386
58435	35231674	3.699753	2.763910	3.463254	-0.235660	-3.238788	1.456569	39.979049388	116.338922683	44.664088
58436	35231699	3.524691	2.722651	4.947701	-0.114687	-3.218927	1.477196	39.979049425	116.338922687	44.662199
58437	35231724	3.207333	2.636008	6.367644	0.009802	-3.227680	1.510208	39.979049463	116.338922692	44.660237
58438	35231749	2.729252	2.649982	7.430243	0.124671	-3.254568	1.560170	39.979049501	116.338922698	44.658205
58439	35231774	2.206964	2.605991	8.536466	0.244243	-3.301146	1.618214	39.979049539	116.338922703	44.656135
58440	35231799	1.707194	2.552909	9.501674	0.373326	-3.366018	1.672833	39.979049578	116.338922710	44.653980
58441	35231824	1.313395	2.733986	10.429516	0.491536	-3.439825	1.721223	39.979049618	116.338922716	44.651772
58442	35231849	0.968642	2.843071	11.398989	0.599817	-3.534308	1.773992	39.979049657	116.338922723	44.649515
58443	35231874	0.331093	2.939526	11.787543	0.680392	-3.637375	1.831262	39.979049698	116.338922731	44.695196
58444	35231899	-0.065475	3.089023	12.326646	0.755738	-3.743505	1.888822	39.979049739	116.338922739	44.692858
58445	35231924	-0.282455	3.132934	12.715108	0.808163	-3.857261	1.943726	39.979049780	116.338922748	44.690482
58446	35231949	-0.558376	3.289305	12.881822	0.838967	-3.970636	1.999451	39.979049822	116.338922757	44.688074
58447	35231974	-0.683659	3.293265	12.957658	0.869333	-4.081287	2.047576	39.979049865	116.338922767	44.685646
58448	35231999	-0.779760	3.293807	12.797926	0.881609	-4.174400	2.090887	39.979049908	116.338922778	44.683176
58449	35232024	-0.868862	3.235130	12.675448	0.879254	-4.281227	2.139102	39.979049951	116.338922789	44.680677
58450	35232049	-0.972866	3.168804	12.334363	0.841730	-4.392973	2.184924	39.979049995	116.338922800	44.678150
58451	35232074	-1.187002	3.094706	11.943030	0.804184	-4.490118	2.229932	39.979050040	116.338922812	44.781399
58452	35232099	-1.268920	3.046567	11.598478	0.757269	-4.573843	2.269269	39.979050085	116.338922825	44.778828
58453	35232124	-1.292971	2.867728	11.193325	0.718632	-4.662215	2.308122	39.979050131	116.338922838	44.776231
58454	35232149	-1.405592	2.738049	10.905537	0.679504	-4.727405	2.341280	39.979050176	116.338922851	44.773609
58455	35232174	-1.524614	2.592341	10.516570	0.634033	-4.782019	2.381688	39.979050223	116.338922865	44.770963
58456	35232199	-1.716070	2.335940	10.218735	0.588690	-4.821892	2.411008	39.979050270	116.338922879	44.768292
58457	35232224	-1.739526	2.252257	9.890300	0.537854	-4.872320	2.437859	39.979050317	116.338922894	44.765597
58458	35232249	-2.174839	1.918107	9.300017	0.513045	-4.896865	2.467798	39.979050364	116.338922908	44.762879
58459	35232274	-2.881343	2.102453	10.259229	0.466163	-5.003048	2.489934	39.979050412	116.338922924	44.830598
58460	35232299	-1.079861	1.000780	7.099509	0.512941	-4.931347	2.526393	39.979050461	116.338922939	44.827845
58461	35232324	0.166921	-0.194521	10.999605	0.620328	-4.638979	2.571024	39.979050509	116.338922955	44.825062
58462	35232349	-0.506372	0.995152	11.999171	0.424689	-4.703098	2.662949	39.979050558	116.338922972	44.822256
58463	35232374	-2.751761	1.409604	9.825208	0.300075	-4.831478	2.746773	39.979050607	116.338922989	44.819465
58464	35232399	-3.789475	-0.025018	9.469479	0.348291	-4.918059	2.748056	39.979050656	116.338923007	44.816630
58465	35232424	-5.432996	0.904565	11.033217	0.401146	-5.007266	2.591348	39.979050706	116.338923024	44.813793
58466	35232449	-5.882323	1.973712	11.017934	0.583481	-5.215901	2.415346	39.979050756	116.338923042	44.810962
58467	35232474	-6.143622	1.564850	11.317054	0.541083	-5.515794	2.333340	39.979050806	116.338923061	44.764903
58468	35232499	-5.778315	0.835338	11.743265	0.503882	-5.632614	2.362848	39.979050856	116.338923079	44.762085
58469	35232524	-4.969527	0.799029	13.134185	0.553663	-5.596767	2.367406	39.979050907	116.338923098	44.759280
58470	35232549	-4.462106	-0.059106	13.411453	0.593820	-5.460145	2.460791	39.979050958	116.338923118	44.756487
58471	35232574	-4.198184	-0.169519	14.509597	0.510167	-5.375773	2.574085	39.979051009	116.338923138	44.753713
58472	35232599	-4.967526	0.436070	13.756207	0.419625	-5.442930	2.655699	39.979051060	116.338923158	44.750950
58473	35232624	-5.998781	0.265334	12.764117	0.369977	-5.540198	2.709548	39.979051112	116.338923179	44.748204
58474	35232649	-6.341223	0.475327	13.114459	0.387468	-5.612602	2.704164	39.979051164	116.338923200	44.745479
58475	35232674	-5.814572	0.969756	13.728359	0.443784	-5.696074	2.661519	39.979051216	116.338923222	44.802598
58476	35232699	-6.577518	0.436831	13.574068	0.425641	-5.763438	2.675976	39.979051269	116.338923244	44.799931
58477	35232724	-6.565340	0.732390	13.874901	0.474498	-5.792034	2.676150	39.979051321	116.338923266	44.797292
58478	35232749	-7.364666	0.169984	14.485302	0.465701	-5.786881	2.719025	39.979051374	116.338923289	44.794684
58479	35232774	-7.002447	0.381733	14.657130	0.439197	-5.862114	2.787862	39.979051426	116.338923312	44.792126
58480	35232799	-6.760320	0.113301	13.890988	0.418748	-5.911615	2.816737	39.979051479	116.338923335	44.789585
58481	35232824	-7.006215	0.286711	13.773291	0.498344	-5.928760	2.799998	39.979051532	116.338923359	44.787074
58482	35232849	-7.233066	0.508942	13.713592	0.551592	-5.948448	2.789784	39.979051586	116.338923383	44.784595
58483	35232874	-7.208712	0.437344	13.701416	0.569280	-5.973148	2.794259	39.979051639	116.338923407	44.806019
58484	35232899	-7.563052	0.605040	13.410127	0.604106	-5.996346	2.778471	39.979051692	116.338923431	44.803611
58485	35232924	-7.686668	0.432552	13.485256	0.650504	-5.990298	2.779139	39.979051746	116.338923456	44.801237
58486	35232949	-7.721207	0.370519	13.948393	0.671901	-5.991751	2.780145	39.979051799	116.338923480	44.798898
58487	35232974	-8.158342	-0.058226	14.092376	0.699570	-6.013239	2.794143	39.979051853	116.338923505	44.796607
58488	35232999	-8.261296	-0.211463	14.286633	0.723145	-6.014629	2.812821	39.979051906	116.338923530	44.794345
58489	35233024	-8.402866	-0.480964	14.503266	0.724679	-6.036795	2.816160	39.979051959	116.338923556	44.792124
58490	35233049	-8.894678	-0.211140	14.570603	0.757083	-6.042368	2.798267	39.979052013	116.338923581	44.789946
58491	35233074	-9.100438	-0.324847	14.720029	0.794439	-6.042020	2.765861	39.979052066	116.338923607	44.823106
58492	35233099	-9.421836	-0.273008	14.907967	0.799899	-6.047650	2.747758	39.979052120	116.338923633	44.821030
58493	35233124	-9.683585	-0.430861	14.806108	0.798643	-6.045027	2.726536	39.979052173	116.338923659	44.819002
58494	35233149	-9.777061	-0.443197	14.815491	0.799001	-6.039564	2.696662	39.979052226	116.338923686	44.817022
58495	35233174	-9.835736	-0.491687	14.545276	0.790464	-6.029428	2.673864	39.979052278	116.338923712	44.815087
58496	35233199	-9.900132	-0.534708	14.271081	0.779022	-6.007288	2.640334	39.979052331	116.338923738	44.813200
58497	35233224	-9.982309	-0.504874	14.043565	0.784649	-5.963100	2.598213	39.979052383	116.338923765	44.811357
58498	35233249	-10.065244	-0.487079	14.040922	0.793308	-5.912129	2.553864	39.979052436	116.338923791	44.809559
58499	35233274	-10.137807	-0.397849	13.886503	0.799143	-5.835473	2.503766	39.979052488	116.338923818	44.896705
58500	35233299	-9.925195	0.021159	14.272050	0.861403	-5.759641	2.403998	39.979052540	116.338923845	44.895026
58501	35233324	-10.532882	0.018497	13.887608	0.886752	-5.708617	2.333642	39.979052592	116.338923872	44.893390
58502	35233349	-10.840275	-0.102953	14.356425	0.872099	-5.650711	2.322667	39.979052643	116.338923898	44.891799
58503	35233374	-10.953511	-0.188320	14.823804	0.858670	-5.587801	2.321466	39.979052693	116.338923925	44.890264
58504	35233399	-10.846843	0.079201	15.367147	0.847722	-5.509791	2.298986	39.979052744	116.338923951	44.888772
58505	35233424	-10.977539	0.462789	15.850138	0.862112	-5.424284	2.252750	39.979052794	116.338923978	44.887332
58506	35233449	-10.934512	0.573270	16.455840	0.869520	-5.364171	2.204623	39.979052844	116.338924004	44.885949
58507	35233474	-11.137816	0.909376	17.071948	0.881677	-5.314286	2.135054	39.979052894	116.338924030	44.943937
58508	35233499	-11.448488	0.937372	18.043471	0.865418	-5.249138	2.090011	39.979052944	116.338924057	44.942702
58509	35233524	-11.728285	1.238974	19.420779	0.822901	-5.203690	2.059006	39.979052993	116.338924083	44.941539
58510	35233549	-12.277294	1.632909	20.433807	0.788278	-5.174435	2.018041	39.979053041	116.338924109	44.940455
58511	35233574	-12.873257	2.322359	21.604977	0.781356	-5.149640	1.944470	39.979053090	116.338924135	44.939497
58512	35233599	-13.604995	2.775577	22.904357	0.768009	-5.134206	1.881895	39.979053138	116.338924161	44.938595
58515	35233624	-14.421506	3.211409	24.202235	0.725549	-5.144568	1.832734	39.979053185	116.338924186	44.937797
58516	35233649	-15.341006	3.674266	25.235231	0.698326	-5.174007	1.787411	39.979053232	116.338924212	44.937112
58517	35233674	-16.280873	4.269818	26.121623	0.666019	-5.207705	1.749348	39.979052519	116.338923043	45.014693
58518	35233699	-17.122036	4.804146	26.861067	0.621689	-5.256728	1.720420	39.979052551	116.338923053	45.014744
58519	35233724	-17.974398	5.308540	27.112741	0.592061	-5.321143	1.709448	39.979052583	116.338923063	45.014913
58520	35233749	-18.618906	5.839477	27.235040	0.558800	-5.389904	1.714044	39.979052614	116.338923073	45.015201
58521	35233774	-19.197715	6.319168	27.092739	0.524455	-5.454976	1.731502	39.979052644	116.338923081	45.015608
58522	35233799	-19.760451	6.760089	26.642702	0.500266	-5.523468	1.750044	39.979052673	116.338923089	45.016130
58523	35233824	-20.542351	6.913990	26.051170	0.460358	-5.591494	1.810810	39.979052702	116.338923096	45.016764
58524	35233849	-20.968089	7.205873	24.959353	0.426951	-5.645061	1.875966	39.979052730	116.338923101	45.017502
58525	35233874	-21.511551	7.263035	24.080286	0.396248	-5.672797	1.943390	39.979052756	116.338923106	45.018564
58526	35233899	-22.172521	7.121513	22.888358	0.344088	-5.698269	2.005179	39.979052782	116.338923110	45.019489
58527	35233924	-22.548382	7.051719	21.128488	0.327723	-5.697716	2.044140	39.979052807	116.338923112	45.020491
58528	35233949	-22.689162	6.514987	19.600979	0.348954	-5.671591	2.088887	39.979052831	116.338923114	45.021557
58529	35233974	-22.603563	6.526473	18.075728	0.319770	-5.676501	2.137832	39.979052853	116.338923114	45.022616
58530	35233999	-22.407765	5.948342	16.278598	0.260482	-5.699622	2.218189	39.979052875	116.338923113	45.023776
58531	35234024	-22.042925	5.084130	13.690853	0.231107	-5.679572	2.270023	39.979052896	116.338923111	45.024960
58532	35234049	-21.671229	4.776039	11.779375	0.276541	-5.571353	2.270914	39.979052916	116.338923107	45.026151
58533	35234074	-21.292041	4.129612	9.148677	0.336929	-5.420200	2.288490	39.979052934	116.338923103	44.979021
58534	35234099	-22.173324	2.632834	6.121046	0.496515	-5.150734	2.264691	39.979052952	116.338923097	44.980161
58535	35234124	-23.179092	2.237644	5.913596	0.634523	-4.884380	2.176334	39.979052969	116.338923090	44.981257
58536	35234149	-23.386983	2.188035	4.960317	0.761857	-4.766250	2.060601	39.979052985	116.338923083	44.982303
58537	35234174	-23.647144	1.426375	3.570106	0.900728	-4.692225	1.925212	39.979053000	116.338923074	44.983248
58538	35234199	-23.680856	0.618680	2.754954	1.061275	-4.644192	1.755693	39.979053014	116.338923064	44.984164
58539	35234224	-23.464324	-0.157700	2.499594	1.241759	-4.535831	1.582156	39.979053027	116.338923053	44.985004
58540	35234249	-23.007745	-1.264497	2.631524	1.394924	-4.332424	1.494315	39.979053039	116.338923041	44.985766
58541	35234274	-22.912758	-2.295724	2.771360	1.533650	-4.099540	1.476585	39.979053050	116.338923029	45.055258
58542	35234299	-23.307573	-2.959789	2.602699	1.662257	-3.879466	1.478493	39.979053060	116.338923015	45.055874
58543	35234324	-24.084638	-3.282354	2.416413	1.766628	-3.714148	1.489940	39.979053068	116.338923000	45.056400
58544	35234349	-24.775854	-3.320751	2.047719	1.837340	-3.581357	1.489906	39.979053075	116.338922985	45.056833
58545	35234374	-25.294953	-3.342137	1.890342	1.891456	-3.443658	1.489663	39.979053081	116.338922969	45.057146
58546	35234399	-25.669394	-3.259780	1.310392	1.912361	-3.286470	1.475065	39.979053086	116.338922952	45.057378
58547	35234424	-25.743145	-3.393178	0.884210	1.895686	-3.087400	1.471415	39.979053089	116.338922933	45.057503
58548	35234449	-26.042142	-3.282252	0.035435	1.836867	-2.888964	1.463194	39.979053092	116.338922914	45.057515
58549	35234474	-26.444133	-3.258349	-0.916838	1.736517	-2.700233	1.466716	39.979053093	116.338922894	45.053008
58550	35234499	-26.976537	-3.237156	-1.699491	1.610117	-2.525803	1.449455	39.979053093	116.338922874	45.052773
58551	35234524	-27.522619	-3.137381	-2.599725	1.416518	-2.381198	1.453976	39.979053092	116.338922852	45.052405
58552	35234549	-28.253694	-2.968890	-3.811704	1.184973	-2.254771	1.445911	39.979053089	116.338922829	45.051895
58553	35234574	-28.888786	-3.090811	-4.663863	0.996228	-2.111908	1.432580	39.979053085	116.338922805	45.051196
58554	35234599	-29.401653	-3.420011	-5.361633	0.787480	-1.977428	1.379811	39.979053081	116.338922780	45.050380
58555	35234624	-29.844188	-3.654177	-6.013763	0.539079	-1.827454	1.309951	39.979053075	116.338922754	45.049402
58556	35234649	-30.228277	-3.822281	-6.686358	0.303066	-1.653010	1.240007	39.979053067	116.338922727	45.048254
58557	35234674	-30.416554	-4.293131	-7.778575	0.100376	-1.460917	1.135763	39.979053059	116.338922699	45.043633
58558	35234699	-30.919253	-4.641257	-9.228010	-0.132440	-1.253817	0.997024	39.979053049	116.338922670	45.042125
58559	35234724	-31.105658	-5.356015	-9.364508	-0.339435	-1.002534	0.919880	39.979053038	116.338922640	45.040425
58560	35234749	-31.460922	-6.639608	-10.293357	-0.583072	-0.791239	0.851781	39.979053026	116.338922609	45.038527
58561	35234774	-31.678482	-7.469640	-10.906566	-0.730799	-0.598787	0.771094	39.979053013	116.338922578	45.036394
58562	35234799	-31.664533	-8.356980	-11.007733	-0.884982	-0.414196	0.699912	39.979052998	116.338922545	45.034084
58563	35234824	-31.819689	-9.230695	-11.158267	-0.966089	-0.241898	0.622775	39.979052982	116.338922511	45.031562
58564	35234849	-31.699704	-9.893191	-11.061772	-0.992701	-0.090250	0.510976	39.979052965	116.338922477	45.028827
58565	35234874	-31.329877	-10.336198	-10.913996	-0.954792	0.042218	0.364140	39.979052947	116.338922443	45.058882
58566	35234899	-30.457186	-10.173150	-10.347771	-0.846802	0.226566	0.174610	39.979052927	116.338922407	45.055739
58567	35234924	-29.640122	-10.597512	-9.478628	-0.735515	0.413449	0.017862	39.979052906	116.338922371	45.052393
58568	35234949	-29.241130	-10.687352	-8.699106	-0.627719	0.580219	-0.120595	39.979052884	116.338922334	45.048848
58569	35234974	-28.819360	-10.225674	-7.842094	-0.486550	0.736441	-0.283577	39.979052860	116.338922297	45.045141
58570	35234999	-28.289174	-9.543016	-6.726182	-0.331229	0.912759	-0.452274	39.979052835	116.338922259	45.041221
58571	35235024	-27.687178	-8.733318	-5.001867	-0.234032	1.071063	-0.586018	39.979052809	116.338922221	45.037127
58572	35235049	-26.838815	-7.537015	-3.585036	-0.194107	1.217920	-0.676735	39.979052782	116.338922182	45.032873
58573	35235074	-25.637122	-6.476068	-1.701849	-0.188759	1.452319	-0.718149	39.979052753	116.338922142	45.063686
58574	35235099	-24.490992	-5.685776	0.492556	-0.260151	1.663215	-0.677118	39.979052723	116.338922102	45.059173
58575	35235124	-23.820130	-4.760621	2.985069	-0.461828	1.832970	-0.568933	39.979052692	116.338922061	45.054547
58576	35235149	-23.325226	-3.740014	4.912557	-0.680214	1.945258	-0.433273	39.979052660	116.338922019	45.049823
58577	35235174	-23.208176	-2.762169	6.141180	-0.881639	2.042794	-0.325560	39.979052626	116.338921977	45.045084
58578	35235199	-23.087045	-1.418462	6.950625	-0.939360	2.079369	-0.334159	39.979052591	116.338921934	45.040199
58579	35235224	-22.459987	-0.228328	7.734507	-0.973947	2.078472	-0.397729	39.979052555	116.338921890	45.035246
58580	35235249	-19.277365	1.422107	8.971798	-0.977890	2.029385	-0.436362	39.979052518	116.338921845	45.030238
