PacketCounter	SampleTimeFine	Acc_X	Acc_Y	Acc_Z	Gyr_X	Gyr_Y	Gyr_Z	Latitude	Longitude	Altitude
40995	36410524	-2.048824	0.987281	9.487299	-0.003171	0.007018	0.001472	39.979428167	116.338894856	46.865147
40996	36410549	-2.127771	0.963378	9.632170	-0.002791	0.010380	0.005920	39.979428167	116.338894855	46.865153
40997	36410574	-2.141644	0.923387	9.644011	-0.006053	0.010192	0.002131	39.979427342	116.338893914	46.882174
40998	36410599	-2.199609	0.884827	9.665137	-0.000732	0.011294	0.004108	39.979427341	116.338893914	46.882139
40999	36410624	-2.157960	0.952582	9.570938	0.003675	0.003052	0.007544	39.979427341	116.338893913	46.882105
41000	36410649	-2.030386	1.025157	9.298545	-0.002037	0.007991	0.011075	39.979427340	116.338893912	46.882071
41001	36410674	-2.091259	1.004255	9.370273	0.002350	0.008276	0.005651	39.979427339	116.338893912	46.882729
41002	36410699	-2.134493	1.000667	9.596386	0.002654	0.006831	0.006151	39.979427338	116.338893911	46.882694
41003	36410724	-2.230250	0.962665	9.821007	-0.001223	0.003698	0.004116	39.979427338	116.338893910	46.882660
41004	36410749	-2.197076	0.885899	9.742280	-0.002255	0.006570	0.001596	39.979427337	116.338893909	46.882627
41005	36410774	-1.988930	1.010190	9.243987	-0.003842	0.009923	0.005108	39.979427336	116.338893909	46.882591
41006	36410799	-2.032834	1.046184	9.193532	-0.004230	0.009781	0.004157	39.979427335	116.338893908	46.882557
41007	36410824	-2.152144	1.007942	9.487306	-0.004232	0.009187	0.006849	39.979427335	116.338893907	46.882521
41008	36410849	-2.300693	0.995363	9.915520	0.002676	0.004534	0.001194	39.979427334	116.338893906	46.882486
41009	36410874	-2.202715	0.915869	9.812882	0.002879	0.008897	0.005212	39.979427333	116.338893906	46.883158
41010	36410899	-2.030473	0.963273	9.293015	-0.003442	0.012769	0.005038	39.979427332	116.338893905	46.883127
41011	36410924	-2.122797	0.923426	9.274212	-0.003637	0.009412	0.005223	39.979427332	116.338893904	46.883094
41012	36410949	-2.296088	0.954908	9.699891	0.000520	0.002401	0.006193	39.979427331	116.338893903	46.883061
41013	36410974	-2.177803	1.001207	9.815839	-0.001606	-0.002396	0.006625	39.979427330	116.338893903	46.883036
41014	36410999	-2.041960	0.991378	9.495300	-0.005409	0.007154	0.005782	39.979427329	116.338893902	46.883005
41015	36411024	-2.178480	0.930874	9.495024	-0.000557	0.007555	0.003926	39.979427329	116.338893901	46.882975
41016	36411049	-2.091320	1.016432	9.419537	-0.003539	-0.000900	0.009188	39.979427328	116.338893901	46.882944
41017	36411074	-2.029298	1.019272	9.396964	0.000100	0.002457	0.005269	39.979427327	116.338893900	46.881506
41018	36411099	-2.090580	0.942727	9.625480	0.000624	0.007500	0.000058	39.979427326	116.338893899	46.881473
41019	36411124	-2.178777	0.983945	9.650836	-0.000203	0.005250	0.002180	39.979427325	116.338893898	46.881441
41020	36411149	-2.181228	1.020140	9.547202	-0.000620	0.007480	0.003049	39.979427325	116.338893898	46.881409
41023	36411174	-2.138473	0.970744	9.501825	-0.001301	0.001177	0.000918	39.979427521	116.338893757	46.887670
41024	36411199	-2.181286	0.966450	9.539041	0.005460	-0.001188	0.007683	39.979427520	116.338893757	46.887651
41025	36411224	-2.175920	0.989605	9.612283	0.003909	-0.003010	0.000465	39.979427520	116.338893756	46.887633
41026	36411249	-2.005845	1.045374	9.411707	0.001907	0.000486	0.004591	39.979427519	116.338893755	46.887615
41027	36411274	-2.011501	0.960018	9.412743	-0.005756	0.002086	0.001389	39.979427518	116.338893754	46.886235
41028	36411299	-2.144277	0.894754	9.580065	-0.000063	0.006419	-0.000079	39.979427518	116.338893754	46.886215
41029	36411324	-2.157890	0.970516	9.553706	-0.004432	0.004257	0.003092	39.979427517	116.338893753	46.886195
41030	36411349	-2.143974	1.000958	9.515223	-0.003776	0.002865	0.003034	39.979427516	116.338893752	46.886175
41031	36411374	-2.145721	0.950943	9.640103	-0.002442	0.003444	0.003608	39.979427516	116.338893751	46.886157
41032	36411399	-2.112210	0.976362	9.473930	-0.001207	0.003661	0.001544	39.979427515	116.338893751	46.886138
41033	36411424	-2.008385	1.060751	9.339919	-0.000063	0.006384	0.001629	39.979427514	116.338893750	46.886118
41034	36411449	-1.999054	0.988918	9.416834	-0.003292	0.004938	0.005674	39.979427514	116.338893749	46.886097
41035	36411474	-2.047557	0.934965	9.495105	-0.001352	0.006984	-0.000462	39.979427513	116.338893748	46.886702
41036	36411499	-2.120666	0.959526	9.544378	-0.000089	0.009109	0.002247	39.979427512	116.338893747	46.886681
41037	36411524	-2.157998	0.934641	9.580182	-0.003204	0.006272	0.002715	39.979427512	116.338893747	46.886661
41038	36411549	-2.109553	0.984389	9.520526	-0.002798	0.007772	0.001405	39.979427511	116.338893746	46.886640
41039	36411574	-2.092797	1.014984	9.455439	-0.008078	0.009653	-0.004216	39.979427510	116.338893745	46.886619
41040	36411599	-2.120436	0.975010	9.464612	-0.005764	0.010823	0.002071	39.979427509	116.338893744	46.886598
41041	36411624	-2.170401	0.927832	9.565519	-0.006577	0.010046	0.001121	39.979427509	116.338893744	46.886577
41042	36411649	-2.191238	0.930291	9.645337	-0.007279	0.005050	-0.002772	39.979427508	116.338893743	46.886556
41043	36411674	-2.144278	0.990908	9.630925	-0.007086	0.005254	-0.002202	39.979427507	116.338893742	46.888644
41044	36411699	-2.057285	0.904624	9.506976	-0.004497	0.006767	0.001584	39.979427507	116.338893741	46.888626
41045	36411724	-2.015364	0.917817	9.292883	-0.010021	0.011684	0.004049	39.979427506	116.338893740	46.888607
41046	36411749	-2.134059	0.913474	9.361965	-0.011869	0.006934	-0.000548	39.979427505	116.338893740	46.888586
41047	36411774	-2.153761	1.030951	9.597801	0.001703	0.001682	-0.003324	39.979427505	116.338893739	46.888567
41048	36411799	-2.057070	1.252333	9.627849	-0.003865	0.006938	-0.008190	39.979427504	116.338893738	46.888547
41049	36411824	-2.035101	1.027030	9.523352	-0.021042	0.012136	-0.004570	39.979427503	116.338893737	46.888528
41050	36411849	-2.164820	0.739800	9.441192	-0.012618	0.015017	-0.004952	39.979427502	116.338893737	46.888508
41051	36411874	-2.211908	0.768261	9.554332	-0.005245	0.006329	-0.005640	39.979427502	116.338893736	46.887104
41052	36411899	-2.205128	0.913683	9.674521	-0.006257	0.001848	-0.001632	39.979427501	116.338893735	46.887083
41053	36411924	-2.096021	0.995043	9.624301	-0.003648	0.006650	0.001965	39.979427500	116.338893734	46.887064
41054	36411949	-2.100916	1.082479	9.434378	-0.007300	0.008497	0.002815	39.979427500	116.338893733	46.887045
41055	36411974	-2.124190	1.130760	9.394619	-0.002362	0.004442	-0.005047	39.979427499	116.338893733	46.887022
41056	36411999	-2.099641	1.079558	9.472953	-0.011638	0.006612	-0.004931	39.979427498	116.338893732	46.887001
41057	36412024	-2.167902	0.865656	9.631831	-0.009456	0.005858	-0.004104	39.979427498	116.338893731	46.886981
41058	36412049	-2.245407	0.829449	9.755376	-0.003293	0.006579	-0.001805	39.979427497	116.338893730	46.886962
41059	36412074	-2.142971	0.886389	9.601313	-0.003247	0.007880	0.000025	39.979427496	116.338893729	46.885575
41060	36412099	-2.031876	0.967298	9.307675	-0.004096	0.009780	0.003968	39.979427495	116.338893729	46.885556
41061	36412124	-2.110788	0.914594	9.425840	-0.004135	0.007452	0.001208	39.979427495	116.338893728	46.885535
41062	36412149	-2.239821	0.895441	9.770235	0.000288	0.007419	0.003304	39.979427494	116.338893727	46.885516
41063	36412174	-2.048996	1.059784	9.600620	-0.001848	0.006248	0.004746	39.979427493	116.338893726	46.885501
41064	36412199	-1.935203	1.074773	9.276149	-0.007035	0.010002	0.001507	39.979427493	116.338893725	46.885481
41065	36412224	-2.117588	0.905144	9.380579	-0.001271	0.018744	0.003353	39.979427492	116.338893725	46.885460
41066	36412249	-2.261643	0.910918	9.674490	0.003152	0.011064	-0.001629	39.979427491	116.338893724	46.885440
41067	36412274	-2.120573	1.009163	9.537891	-0.002787	0.009032	0.004728	39.979427490	116.338893723	46.885566
41068	36412299	-2.074960	0.990095	9.466014	-0.004905	0.012600	0.002395	39.979427490	116.338893722	46.885546
41069	36412324	-2.159528	0.945409	9.648062	0.000441	0.012536	0.003059	39.979427489	116.338893721	46.885526
41070	36412349	-2.121926	0.980303	9.511190	-0.000052	0.013778	0.001426	39.979427488	116.338893721	46.885507
41071	36412374	-2.058143	1.004293	9.364969	-0.008781	0.011159	-0.000963	39.979427488	116.338893720	46.885485
41072	36412399	-2.164952	0.901633	9.584062	-0.002652	0.010350	0.000399	39.979427487	116.338893719	46.885465
41073	36412424	-2.142925	0.923522	9.606763	-0.001025	0.012791	0.003050	39.979427486	116.338893718	46.885445
41074	36412449	-2.045898	1.010879	9.431525	0.000618	0.010473	0.000121	39.979427485	116.338893717	46.885425
41075	36412474	-1.968496	1.015365	9.338451	-0.002666	0.013265	0.000344	39.979427485	116.338893716	46.884038
41076	36412499	-2.021093	0.932604	9.390041	-0.008333	0.016934	-0.003970	39.979427484	116.338893716	46.884016
41077	36412524	-2.101347	0.949950	9.537704	-0.001487	0.018540	-0.001977	39.979427483	116.338893715	46.883992
41078	36412549	-2.137340	0.986830	9.612285	-0.005463	0.016403	-0.005271	39.979427482	116.338893714	46.883969
41079	36412574	-2.083352	1.010533	9.533918	-0.004001	0.020348	-0.004004	39.979427482	116.338893713	46.883949
41080	36412599	-2.159128	0.998161	9.529847	-0.002241	0.020905	-0.004122	39.979427481	116.338893712	46.883926
41081	36412624	-2.261653	0.906756	9.685118	-0.005515	0.014442	-0.000697	39.979427480	116.338893712	46.883904
41082	36412649	-2.088651	0.957305	9.414012	-0.001322	0.013928	-0.005235	39.979427479	116.338893711	46.883882
41083	36412674	-2.029195	0.953413	9.340879	-0.007337	0.014158	-0.003524	39.979427479	116.338893710	46.879984
41084	36412699	-2.093290	0.879644	9.570730	-0.007598	0.016645	-0.002088	39.979427478	116.338893709	46.879958
41085	36412724	-2.171901	0.949611	9.630768	-0.001876	0.016606	0.000146	39.979427477	116.338893708	46.879933
41086	36412749	-2.102705	1.007684	9.556517	0.000402	0.021240	0.001171	39.979427476	116.338893707	46.879908
41087	36412774	-2.092907	0.987324	9.483287	-0.000995	0.017270	-0.005800	39.979427476	116.338893707	46.879882
41088	36412799	-2.150741	1.027225	9.483385	-0.007190	0.023384	0.000042	39.979427475	116.338893706	46.879857
41089	36412824	-2.235360	0.909681	9.638583	-0.003983	0.016765	-0.001629	39.979427474	116.338893705	46.879832
41090	36412849	-2.153821	0.926500	9.556207	-0.002784	0.013493	-0.001043	39.979427473	116.338893704	46.879808
41091	36412874	-2.064971	1.064770	9.378472	-0.001496	0.020301	0.001536	39.979427472	116.338893703	46.877461
41092	36412899	-2.099774	0.983241	9.469957	-0.010259	0.015689	-0.002484	39.979427472	116.338893702	46.877434
41093	36412924	-2.140047	0.943006	9.565589	-0.004865	0.018622	-0.004518	39.979427471	116.338893702	46.877408
41094	36412949	-2.112462	0.985564	9.577714	-0.002232	0.017256	-0.003049	39.979427470	116.338893701	46.877381
41095	36412974	-2.131752	0.963603	9.564334	-0.006145	0.025275	0.000048	39.979427469	116.338893700	46.877356
41096	36412999	-2.242320	0.897216	9.663812	-0.001141	0.020331	-0.003806	39.979427469	116.338893699	46.877331
41097	36413024	-2.189409	1.028506	9.511297	-0.003330	0.021334	0.002830	39.979427468	116.338893698	46.877306
41098	36413049	-2.104992	1.042729	9.391674	-0.006421	0.015704	-0.005402	39.979427467	116.338893697	46.877281
41099	36413074	-2.097006	0.943453	9.436582	-0.006299	0.014637	-0.000948	39.979427466	116.338893697	46.873422
41100	36413099	-2.134450	0.952665	9.548333	-0.003712	0.014199	-0.004189	39.979427466	116.338893696	46.873393
41101	36413124	-2.205114	0.946651	9.687946	-0.004594	0.013535	-0.006332	39.979427465	116.338893695	46.873365
41102	36413149	-2.257483	0.974122	9.707960	-0.003901	0.021958	-0.005268	39.979427464	116.338893694	46.873338
41103	36413174	-2.105231	0.995672	9.455372	-0.003642	0.017305	-0.003999	39.979427463	116.338893693	46.873311
41104	36413199	-2.053935	0.946709	9.292953	-0.007488	0.015686	-0.002398	39.979427462	116.338893693	46.873283
41105	36413224	-2.103945	0.904920	9.440449	-0.008439	0.015980	-0.004162	39.979427462	116.338893692	46.873255
41106	36413249	-2.187055	0.979830	9.654804	-0.002854	0.013596	-0.002302	39.979427461	116.338893691	46.873227
41107	36413274	-2.235678	0.982017	9.809095	-0.001048	0.015131	0.002722	39.979427460	116.338893690	46.871966
41108	36413299	-2.088696	1.047843	9.486159	-0.000338	0.022240	-0.007924	39.979427459	116.338893689	46.871939
41109	36413324	-2.021899	0.967798	9.177313	-0.011124	0.022788	0.002211	39.979427459	116.338893688	46.871911
41110	36413349	-2.152095	0.830913	9.359022	-0.008884	0.015800	-0.003229	39.979427458	116.338893688	46.871882
41111	36413374	-2.171957	0.912449	9.634642	-0.003161	0.013095	-0.002177	39.979427457	116.338893687	46.871854
41112	36413399	-1.956457	1.021655	9.491462	-0.007933	0.020824	-0.002401	39.979427456	116.338893686	46.871824
41113	36413424	-1.927219	1.019379	9.366430	-0.012584	0.028323	-0.004573	39.979427455	116.338893685	46.871794
41114	36413449	-2.105190	0.958618	9.420680	-0.008346	0.031303	-0.007185	39.979427455	116.338893684	46.871763
41115	36413474	-2.156328	0.954370	9.469825	-0.008509	0.025791	-0.007622	39.979427454	116.338893683	46.870503
41116	36413499	-2.108162	0.981706	9.515179	-0.004712	0.024584	-0.003888	39.979427453	116.338893683	46.870470
41117	36413524	-2.095853	0.949948	9.533715	-0.008523	0.031182	-0.006934	39.979427452	116.338893682	46.870437
41118	36413549	-2.148210	0.925316	9.512318	-0.009654	0.034934	-0.005572	39.979427451	116.338893681	46.870405
41119	36413574	-2.153616	0.926804	9.476394	-0.008506	0.034623	-0.004935	39.979427451	116.338893680	46.870371
41120	36413599	-2.130188	0.913047	9.471048	-0.006329	0.031540	-0.007987	39.979427450	116.338893679	46.870338
41121	36413624	-2.079216	0.881459	9.452342	-0.007571	0.031005	-0.006111	39.979427449	116.338893678	46.870304
41122	36413649	-2.061171	0.940662	9.441925	-0.009415	0.034076	-0.008070	39.979427448	116.338893677	46.870270
41125	36413674	-2.099681	0.986175	9.426073	-0.007468	0.036322	-0.005740	39.979427559	116.338893493	46.876060
41126	36413699	-2.128782	0.972141	9.489857	-0.010999	0.036684	-0.011162	39.979427559	116.338893492	46.876036
41127	36413724	-2.117784	0.963859	9.499163	-0.007732	0.037073	-0.006370	39.979427558	116.338893491	46.876013
41128	36413749	-2.072325	0.923988	9.483094	-0.007954	0.037609	-0.008439	39.979427557	116.338893490	46.875989
41129	36413774	-2.054307	0.911815	9.433833	-0.008610	0.039870	-0.013526	39.979427556	116.338893489	46.875964
41130	36413799	-2.084598	0.936558	9.439234	-0.004460	0.041492	-0.006597	39.979427555	116.338893488	46.875939
41131	36413824	-2.081683	1.002702	9.406195	-0.010635	0.042759	-0.015050	39.979427554	116.338893487	46.875914
41132	36413849	-2.033491	0.946363	9.391398	-0.016271	0.044669	-0.010768	39.979427554	116.338893486	46.875887
41133	36413874	-2.042051	0.880059	9.460349	-0.015916	0.050634	-0.009578	39.979427553	116.338893485	46.877536
41134	36413899	-2.083476	0.871657	9.500201	-0.013183	0.050844	-0.015894	39.979427552	116.338893484	46.877510
41135	36413924	-2.045972	0.939330	9.425956	-0.012104	0.054379	-0.008483	39.979427551	116.338893483	46.877483
41136	36413949	-2.067872	1.002759	9.394219	-0.012912	0.055929	-0.010501	39.979427550	116.338893482	46.877455
41137	36413974	-2.088514	1.064633	9.413037	-0.014615	0.058827	-0.019296	39.979427549	116.338893481	46.877426
41138	36413999	-2.068001	1.058881	9.483543	-0.015391	0.062118	-0.015417	39.979427548	116.338893480	46.877397
41139	36414024	-2.130304	0.966454	9.540392	-0.013281	0.059402	-0.018725	39.979427548	116.338893479	46.877369
41140	36414049	-2.173089	0.930649	9.546903	-0.014214	0.062057	-0.018737	39.979427547	116.338893478	46.877340
41141	36414074	-2.207646	0.882479	9.556035	-0.014693	0.067292	-0.019625	39.979427546	116.338893477	46.878480
41142	36414099	-2.224263	0.869915	9.597231	-0.012957	0.060324	-0.016032	39.979427545	116.338893476	46.878453
41143	36414124	-2.192586	0.919375	9.622676	-0.012082	0.059104	-0.013262	39.979427544	116.338893475	46.878426
41144	36414149	-2.169085	0.900272	9.565430	-0.015169	0.061643	-0.013037	39.979427543	116.338893474	46.878400
41145	36414174	-2.128731	0.937906	9.451176	-0.013933	0.063890	-0.010894	39.979427542	116.338893473	46.878372
41146	36414199	-2.099470	1.012511	9.368971	-0.013530	0.064412	-0.014026	39.979427542	116.338893472	46.878345
41147	36414224	-2.294573	0.996269	9.670765	-0.012848	0.059406	-0.013962	39.979427541	116.338893471	46.878318
41148	36414249	-2.267303	0.967003	9.770447	-0.004305	0.062896	-0.016657	39.979427540	116.338893470	46.878293
41149	36414274	-2.202071	0.978675	9.590945	-0.013122	0.063117	-0.015531	39.979427539	116.338893469	46.876939
41150	36414299	-2.203301	0.888301	9.472246	-0.005989	0.069034	-0.012659	39.979427538	116.338893468	46.876914
41151	36414324	-2.251453	0.900711	9.470948	-0.005424	0.060581	-0.014909	39.979427537	116.338893467	46.876889
41152	36414349	-2.222623	0.948614	9.529649	-0.008190	0.057471	-0.012042	39.979427536	116.338893466	46.876864
41153	36414374	-2.167554	0.943061	9.548274	-0.008748	0.048725	-0.013351	39.979427535	116.338893465	46.876840
41154	36414399	-2.030815	0.913296	9.400607	-0.008893	0.060178	-0.013542	39.979427535	116.338893464	46.876814
41155	36414424	-2.108048	0.889893	9.411131	0.000212	0.063723	-0.015993	39.979427534	116.338893463	46.876788
41156	36414449	-2.250341	0.889346	9.554712	0.002390	0.063220	-0.015602	39.979427533	116.338893462	46.876762
41157	36414474	-2.144090	0.938983	9.523005	0.002801	0.060815	-0.016278	39.979427532	116.338893461	46.878423
41158	36414499	-2.043224	0.920172	9.409928	0.002013	0.064641	-0.018170	39.979427531	116.338893460	46.878397
41159	36414524	-2.150751	0.964040	9.452594	0.001268	0.072508	-0.016677	39.979427530	116.338893459	46.878371
41160	36414549	-2.288859	1.025439	9.604355	0.000414	0.065804	-0.020203	39.979427529	116.338893458	46.878346
41161	36414574	-2.277708	1.050331	9.572524	-0.009495	0.060789	-0.018202	39.979427528	116.338893457	46.878323
41162	36414599	-2.177037	1.014715	9.515259	-0.010180	0.060438	-0.016825	39.979427528	116.338893456	46.878299
41163	36414624	-2.172995	0.982952	9.543092	-0.011151	0.061765	-0.016955	39.979427527	116.338893455	46.878274
41164	36414649	-2.252940	0.958241	9.541636	-0.016461	0.068538	-0.016883	39.979427526	116.338893454	46.878250
41165	36414674	-2.206143	0.899120	9.522832	-0.009792	0.064315	-0.015444	39.979427525	116.338893452	46.876883
41166	36414699	-2.109585	0.875848	9.470939	-0.013509	0.064634	-0.011832	39.979427524	116.338893451	46.876858
41167	36414724	-2.130205	0.863635	9.440287	-0.008923	0.070187	-0.012240	39.979427523	116.338893450	46.876832
41168	36414749	-2.126040	0.917188	9.467084	-0.005516	0.073820	-0.014350	39.979427522	116.338893449	46.876806
41169	36414774	-2.135586	0.972306	9.449953	-0.009224	0.075583	-0.015195	39.979427521	116.338893448	46.876780
41170	36414799	-2.194966	0.961148	9.489790	-0.009948	0.076832	-0.015956	39.979427520	116.338893447	46.876753
41171	36414824	-2.215527	1.049152	9.508703	-0.012347	0.073436	-0.014909	39.979427519	116.338893446	46.876727
41172	36414849	-2.180972	1.046567	9.458170	-0.019768	0.073636	-0.015090	39.979427519	116.338893445	46.876700
41173	36414874	-2.189486	0.928163	9.485695	-0.023094	0.074103	-0.017627	39.979427518	116.338893444	46.877363
41174	36414899	-2.083264	0.888447	9.419111	-0.024803	0.077729	-0.016822	39.979427517	116.338893443	46.877336
41175	36414924	-2.004373	0.961792	9.312982	-0.028649	0.084989	-0.014472	39.979427516	116.338893442	46.877308
41176	36414949	-2.009799	0.930248	9.280954	-0.033565	0.087416	-0.021099	39.979427515	116.338893441	46.877279
41177	36414974	-2.138293	0.986121	9.443358	-0.030781	0.099806	-0.021093	39.979427514	116.338893440	46.877249
41178	36414999	-2.184029	1.018687	9.559157	-0.032562	0.099631	-0.016342	39.979427513	116.338893439	46.877218
41179	36415024	-2.029187	1.011170	9.350382	-0.048088	0.104471	-0.019909	39.979427512	116.338893438	46.877187
41180	36415049	-2.009677	0.914010	9.215712	-0.045373	0.113516	-0.023596	39.979427511	116.338893437	46.877155
41181	36415074	-2.059438	0.923376	9.278235	-0.044392	0.116117	-0.022903	39.979427510	116.338893436	46.874759
41182	36415099	-1.997404	1.019500	9.326481	-0.050822	0.124303	-0.026089	39.979427509	116.338893435	46.874722
41183	36415124	-2.066664	0.968230	9.440676	-0.069821	0.135176	-0.020047	39.979427508	116.338893434	46.874684
41184	36415149	-2.148078	1.009278	9.499285	-0.062324	0.138994	-0.017861	39.979427507	116.338893433	46.874645
41185	36415174	-2.040447	0.954503	9.422014	-0.076643	0.148916	-0.019859	39.979427506	116.338893431	46.874607
41186	36415199	-2.291192	0.928601	9.371233	-0.079647	0.150940	-0.018768	39.979427505	116.338893430	46.874567
41187	36415224	-2.234524	1.071647	9.387707	-0.073488	0.159407	-0.022925	39.979427504	116.338893429	46.874527
41188	36415249	-2.233213	1.078416	9.416990	-0.090855	0.155677	-0.024314	39.979427503	116.338893428	46.874486
41189	36415274	-2.226481	0.987500	9.440639	-0.088795	0.158623	-0.021915	39.979427502	116.338893427	46.874659
41190	36415299	-2.327691	0.900086	9.633183	-0.084604	0.158012	-0.023833	39.979427501	116.338893426	46.874618
41191	36415324	-2.312583	0.842404	9.607716	-0.088787	0.153637	-0.024928	39.979427500	116.338893425	46.874578
41192	36415349	-2.258692	0.808198	9.545120	-0.086303	0.159040	-0.019202	39.979427499	116.338893424	46.874539
41193	36415374	-2.295855	0.849510	9.541241	-0.086902	0.153540	-0.018764	39.979427498	116.338893423	46.874499
41194	36415399	-2.357846	0.893492	9.557314	-0.090034	0.157206	-0.015222	39.979427497	116.338893422	46.874460
41195	36415424	-2.385349	0.937508	9.566754	-0.084917	0.149316	-0.017935	39.979427496	116.338893421	46.874422
41196	36415449	-2.392298	0.978684	9.605462	-0.080629	0.148343	-0.015330	39.979427495	116.338893420	46.874384
41197	36415474	-2.397793	0.995126	9.613498	-0.081313	0.144581	-0.021103	39.979427494	116.338893419	46.877129
41198	36415499	-2.385427	0.922311	9.577351	-0.085205	0.143091	-0.019623	39.979427493	116.338893418	46.877095
41199	36415524	-2.389620	0.867268	9.582495	-0.084350	0.140803	-0.020243	39.979427492	116.338893416	46.877062
41200	36415549	-2.384138	0.839774	9.573080	-0.077620	0.136764	-0.018935	39.979427491	116.338893415	46.877030
41201	36415574	-2.364806	0.841190	9.554474	-0.079043	0.135602	-0.016747	39.979427490	116.338893414	46.876998
41202	36415599	-2.378740	0.832723	9.618297	-0.074197	0.131254	-0.015202	39.979427489	116.338893413	46.876967
41203	36415624	-2.486276	0.917854	9.677048	-0.068253	0.124595	-0.015593	39.979427488	116.338893412	46.876937
41204	36415649	-2.466836	0.956501	9.643921	-0.070557	0.125013	-0.017367	39.979427487	116.338893411	46.876908
41205	36415674	-2.425312	0.932048	9.561393	-0.073479	0.115779	-0.013617	39.979427486	116.338893410	46.879645
41206	36415699	-2.393595	0.881281	9.513354	-0.069958	0.115611	-0.015970	39.979427485	116.338893409	46.879620
41207	36415724	-2.378417	0.862033	9.503989	-0.071728	0.112738	-0.013849	39.979427484	116.338893408	46.879595
41208	36415749	-2.353488	0.880085	9.466816	-0.070451	0.104974	-0.012766	39.979427483	116.338893407	46.879570
41209	36415774	-2.270781	0.852621	9.444162	-0.071722	0.103725	-0.008129	39.979427482	116.338893406	46.879544
41210	36415799	-2.241793	0.876035	9.436273	-0.075611	0.108592	-0.008790	39.979427481	116.338893405	46.879519
41211	36415824	-2.209996	0.907785	9.407129	-0.079635	0.111802	-0.006188	39.979427480	116.338893404	46.879493
41212	36415849	-2.208555	0.895587	9.367176	-0.081062	0.118622	-0.011036	39.979427479	116.338893403	46.879467
41213	36415874	-2.194594	0.930091	9.326070	-0.079370	0.122975	-0.011587	39.979427478	116.338893402	46.879075
41214	36415899	-2.172404	0.970109	9.296954	-0.090550	0.123660	-0.013432	39.979427477	116.338893401	46.879046
41215	36415924	-2.161087	1.033776	9.201389	-0.100935	0.130109	-0.014271	39.979427476	116.338893400	46.879015
41216	36415949	-1.948130	1.104869	8.944998	-0.121674	0.145765	-0.006285	39.979427475	116.338893399	46.878982
41217	36415974	-1.796720	0.910930	8.911218	-0.142853	0.170128	-0.003706	39.979427473	116.338893398	46.878940
41218	36415999	-2.016482	0.943007	9.186535	-0.144698	0.181773	-0.007063	39.979427472	116.338893397	46.878899
41219	36416024	-2.057402	1.161958	9.144670	-0.158414	0.196378	-0.004677	39.979427471	116.338893396	46.878856
41220	36416049	-1.980192	1.113990	9.095338	-0.180177	0.215873	-0.013891	39.979427470	116.338893395	46.878811
41221	36416074	-2.023383	0.966267	9.217217	-0.192474	0.235043	-0.014633	39.979427469	116.338893393	46.880493
41222	36416099	-2.190574	0.894262	9.344576	-0.194792	0.243910	-0.017491	39.979427468	116.338893392	46.880445
41223	36416124	-2.302382	0.917318	9.439040	-0.194190	0.247106	-0.023139	39.979427467	116.338893391	46.880397
41224	36416149	-2.353506	0.915784	9.486889	-0.201297	0.249171	-0.021003	39.979427465	116.338893390	46.880349
41226	36416174	-2.437873	0.824678	9.563699	-0.202443	0.242008	-0.021577	39.979427464	116.338893389	46.880303
41228	36416199	-2.494557	0.787385	9.600780	-0.199394	0.247440	-0.017734	39.979427463	116.338893388	46.880256
41229	36416224	-2.580378	0.733249	9.736252	-0.192961	0.243428	-0.022700	39.979427462	116.338893387	46.880210
41230	36416249	-2.712928	0.737020	9.829282	-0.186338	0.233842	-0.023778	39.979427461	116.338893386	46.880166
41231	36416274	-2.618849	0.759503	9.700379	-0.184953	0.229599	-0.024258	39.979427495	116.338893059	46.885369
41232	36416299	-2.502685	0.788938	9.555557	-0.183964	0.228782	-0.020166	39.979427494	116.338893058	46.885338
41233	36416324	-2.549718	0.747494	9.604617	-0.175227	0.221099	-0.021224	39.979427493	116.338893056	46.885309
41234	36416349	-2.585978	0.682305	9.744051	-0.172448	0.212616	-0.025462	39.979427492	116.338893055	46.885281
41235	36416374	-2.555710	0.654769	9.734658	-0.154807	0.210309	-0.025946	39.979427491	116.338893054	46.885258
41236	36416399	-2.537733	0.645243	9.709373	-0.152887	0.205497	-0.025927	39.979427489	116.338893052	46.885233
41237	36416424	-2.526443	0.723878	9.659085	-0.140312	0.205563	-0.028779	39.979427488	116.338893051	46.885210
41238	36416449	-2.563456	0.775013	9.600699	-0.141738	0.195490	-0.029844	39.979427487	116.338893050	46.885189
41239	36416474	-2.551003	0.754476	9.571377	-0.132783	0.187752	-0.034346	39.979427486	116.338893048	46.886302
41240	36416499	-2.560765	0.740580	9.608569	-0.128454	0.187583	-0.032620	39.979427484	116.338893047	46.886283
41241	36416524	-2.580197	0.703310	9.640364	-0.125854	0.179131	-0.034599	39.979427483	116.338893046	46.886265
41242	36416549	-2.592659	0.701857	9.662969	-0.116114	0.176598	-0.034207	39.979427482	116.338893044	46.886249
41243	36416574	-2.629870	0.690934	9.646933	-0.115430	0.172371	-0.029123	39.979427481	116.338893043	46.886234
41244	36416599	-2.629767	0.708859	9.631040	-0.110646	0.168775	-0.032090	39.979427480	116.338893042	46.886220
41245	36416624	-2.650441	0.719824	9.639050	-0.104535	0.162871	-0.032853	39.979427478	116.338893040	46.886208
41246	36416649	-2.676588	0.739143	9.632445	-0.098145	0.153537	-0.030413	39.979427477	116.338893039	46.886197
41247	36416674	-2.657223	0.728309	9.591178	-0.097300	0.147770	-0.031155	39.979427476	116.338893038	46.887815
41248	36416699	-2.597915	0.685742	9.557822	-0.098103	0.138848	-0.023875	39.979427475	116.338893036	46.887808
41249	36416724	-2.611717	0.692610	9.560484	-0.092135	0.135794	-0.028467	39.979427474	116.338893035	46.887800
41250	36416749	-2.603472	0.692579	9.569814	-0.084999	0.130165	-0.020064	39.979427473	116.338893034	46.887794
41251	36416774	-2.537190	0.672138	9.508594	-0.080590	0.127961	-0.019209	39.979427472	116.338893032	46.887788
41252	36416799	-2.513615	0.691596	9.454133	-0.084300	0.123119	-0.017667	39.979427470	116.338893031	46.887783
41253	36416824	-2.509541	0.644806	9.449991	-0.086935	0.124361	-0.019382	39.979427469	116.338893030	46.887777
41254	36416849	-2.548397	0.612833	9.549628	-0.077853	0.118415	-0.014476	39.979427468	116.338893028	46.887772
41255	36416874	-2.599423	0.686914	9.607046	-0.074252	0.115426	-0.015201	39.979427467	116.338893027	46.889386
41256	36416899	-2.604682	0.771111	9.544801	-0.071794	0.111091	-0.017121	39.979427466	116.338893026	46.889384
41257	36416924	-2.590822	0.754749	9.494193	-0.076185	0.112039	-0.017472	39.979427465	116.338893024	46.889382
41258	36416949	-2.604737	0.688617	9.524571	-0.070240	0.110304	-0.014538	39.979427464	116.338893023	46.889381
41259	36416974	-2.648797	0.709247	9.528601	-0.063135	0.103366	-0.012533	39.979427462	116.338893022	46.889381
41260	36416999	-2.636550	0.703574	9.568489	-0.061443	0.097632	-0.019100	39.979427461	116.338893020	46.889381
41261	36417024	-2.615982	0.658097	9.596293	-0.056586	0.096732	-0.015862	39.979427460	116.338893019	46.889382
41262	36417049	-2.626994	0.641576	9.580279	-0.056814	0.093509	-0.011474	39.979427459	116.338893018	46.889385
41263	36417074	-2.643429	0.669243	9.557740	-0.051227	0.089464	-0.010735	39.979427458	116.338893016	46.887961
41264	36417099	-2.643368	0.707778	9.552539	-0.048359	0.084916	-0.010210	39.979427457	116.338893015	46.887965
41265	36417124	-2.619900	0.729837	9.543321	-0.051159	0.084104	-0.005901	39.979427456	116.338893014	46.887968
41266	36417149	-2.646147	0.707776	9.552535	-0.045860	0.080122	-0.008991	39.979427455	116.338893012	46.887973
41267	36417174	-2.672367	0.698063	9.573783	-0.041969	0.076640	-0.012973	39.979427454	116.338893011	46.887979
41268	36417199	-2.705457	0.718683	9.579146	-0.041494	0.072636	-0.009833	39.979427453	116.338893010	46.887986
41269	36417224	-2.657178	0.669275	9.536443	-0.039300	0.066052	-0.010121	39.979427451	116.338893008	46.887994
41270	36417249	-2.654405	0.683074	9.543138	-0.038974	0.064160	-0.005727	39.979427450	116.338893007	46.888002
41271	36417274	-2.688903	0.696726	9.564455	-0.033483	0.061424	-0.006309	39.979427449	116.338893006	46.886595
41272	36417299	-2.695844	0.678774	9.580359	-0.035031	0.052135	-0.005749	39.979427448	116.338893005	46.886605
41273	36417324	-2.675161	0.682943	9.572390	-0.029393	0.049312	-0.003822	39.979427447	116.338893003	46.886615
41274	36417349	-2.739867	0.729726	9.581829	-0.026532	0.043502	-0.006805	39.979427446	116.338893002	46.886627
41275	36417374	-2.793851	0.697776	9.653520	-0.023143	0.036538	-0.002891	39.979427445	116.338893001	46.886641
41276	36417399	-2.777189	0.714466	9.611015	-0.023383	0.030357	-0.005645	39.979427444	116.338892999	46.886655
41277	36417424	-2.640368	0.758915	9.494198	-0.021470	0.024177	-0.000852	39.979427443	116.338892998	46.886671
41278	36417449	-2.733025	0.641743	9.549614	-0.016282	0.020678	-0.001252	39.979427442	116.338892997	46.886687
41279	36417474	-2.751043	0.684201	9.604283	-0.015396	0.008413	0.003342	39.979427441	116.338892996	46.885298
41280	36417499	-2.748211	0.674660	9.578982	-0.013778	0.004111	-0.000279	39.979427440	116.338892994	46.885316
41281	36417524	-2.727487	0.700856	9.567098	-0.012796	0.000432	0.002998	39.979427439	116.338892993	46.885334
41282	36417549	-2.741134	0.764214	9.558005	-0.006957	-0.008741	0.015341	39.979427438	116.338892992	46.885354
41283	36417574	-2.753529	0.777928	9.562030	-0.010289	-0.015217	0.005659	39.979427437	116.338892991	46.885375
41284	36417599	-2.748065	0.727110	9.543244	-0.013642	-0.027174	0.005332	39.979427436	116.338892989	46.885397
41285	36417624	-2.746844	0.696615	9.593696	-0.004089	-0.032198	0.008295	39.979427435	116.338892988	46.885420
41286	36417649	-2.764857	0.704714	9.640264	-0.008057	-0.040929	0.008020	39.979427434	116.338892987	46.885445
41287	36417674	-2.821560	0.715467	9.713420	-0.004151	-0.043611	0.006670	39.979427433	116.338892986	46.889711
41288	36417699	-2.774655	0.720975	9.710823	0.002934	-0.050054	0.007737	39.979427432	116.338892985	46.889742
41289	36417724	-2.709704	0.725368	9.633714	0.002779	-0.051855	0.001720	39.979427431	116.338892983	46.889775
41290	36417749	-2.617244	0.729630	9.595204	0.003934	-0.056066	0.003117	39.979427430	116.338892982	46.889810
41291	36417774	-2.590904	0.809553	9.570202	0.010788	-0.061351	0.001359	39.979427429	116.338892981	46.889843
41292	36417799	-2.680574	0.865742	9.636847	0.019549	-0.060882	-0.003783	39.979427428	116.338892980	46.889880
41293	36417824	-2.813188	0.847410	9.759099	0.019705	-0.060444	-0.007740	39.979427427	116.338892979	46.889918
41294	36417849	-2.865922	0.697221	9.815765	0.026493	-0.068034	-0.006992	39.979427426	116.338892978	46.889959
41295	36417874	-2.926943	0.515375	9.864345	0.037684	-0.077331	-0.005583	39.979427425	116.338892976	46.891120
41296	36417899	-3.001728	0.485999	9.999890	0.048685	-0.086004	0.003161	39.979427424	116.338892975	46.891168
41297	36417924	-3.116300	0.525522	10.099737	0.059965	-0.095339	0.005950	39.979427423	116.338892974	46.891221
41298	36417949	-3.188257	0.570415	10.248827	0.071600	-0.105140	0.019214	39.979427422	116.338892973	46.891280
41299	36417974	-3.257103	0.597969	10.246218	0.093961	-0.127172	0.020096	39.979427421	116.338892972	46.891347
41300	36417999	-3.395457	0.509321	10.405456	0.116391	-0.147708	0.023848	39.979427420	116.338892971	46.891418
41301	36418024	-3.572240	0.446960	10.526209	0.139876	-0.174595	0.034204	39.979427420	116.338892970	46.891496
41302	36418049	-3.552970	0.335669	10.475319	0.148490	-0.193533	0.049344	39.979427419	116.338892969	46.891582
41303	36418074	-3.464641	0.285098	10.386065	0.172883	-0.218564	0.060473	39.979427418	116.338892968	46.893293
41304	36418099	-3.468777	0.375667	10.446225	0.192595	-0.244352	0.083165	39.979427418	116.338892967	46.893395
41305	36418124	-3.165403	0.359407	10.373208	0.209397	-0.266843	0.093240	39.979427417	116.338892966	46.893504
41306	36418149	-2.921781	-0.146422	10.169434	0.212963	-0.285783	0.127658	39.979427416	116.338892965	46.893618
41307	36418174	-3.092626	0.448381	10.501206	0.277677	-0.301947	0.102340	39.979427416	116.338892963	46.893737
41308	36418199	-3.349825	0.635767	10.420573	0.265013	-0.316097	0.112149	39.979427415	116.338892962	46.893865
41309	36418224	-3.186248	0.692217	10.074981	0.274600	-0.338003	0.119087	39.979427415	116.338892961	46.893998
41310	36418249	-3.137426	0.850947	9.930547	0.286792	-0.364833	0.115442	39.979427414	116.338892960	46.894136
41311	36418274	-2.983726	1.011356	9.719661	0.276245	-0.389420	0.123480	39.979427414	116.338892959	46.895865
41312	36418299	-2.774019	1.077656	9.653478	0.271812	-0.395010	0.120828	39.979427413	116.338892958	46.896010
41313	36418324	-2.750724	1.099390	9.722728	0.264107	-0.404725	0.125667	39.979427413	116.338892957	46.896156
41314	36418349	-2.702230	1.134053	9.649715	0.257823	-0.410146	0.114147	39.979427413	116.338892957	46.896305
41315	36418374	-2.519946	1.137382	9.491535	0.247090	-0.414272	0.111943	39.979427412	116.338892956	46.896452
41316	36418399	-2.308818	1.198077	9.429345	0.229862	-0.417168	0.114515	39.979427412	116.338892955	46.896602
41317	36418424	-2.224813	1.166498	9.414627	0.211574	-0.415066	0.113750	39.979427411	116.338892954	46.896751
41318	36418449	-2.201239	1.282024	9.421696	0.195760	-0.400005	0.108533	39.979427411	116.338892953	46.896900
41319	36418474	-2.195649	1.416738	9.475343	0.170833	-0.389321	0.110024	39.979427410	116.338892952	46.896000
41320	36418499	-2.265794	1.362002	9.395295	0.151937	-0.385058	0.102401	39.979427409	116.338892952	46.896148
41321	36418524	-2.341678	1.341265	9.413827	0.137627	-0.377680	0.096008	39.979427409	116.338892951	46.896296
41322	36418549	-2.150063	1.264435	9.357806	0.119197	-0.378670	0.095309	39.979427408	116.338892950	46.896443
41323	36418574	-2.111453	1.165626	9.272359	0.112331	-0.372583	0.083712	39.979427408	116.338892949	46.896587
41324	36418599	-1.927985	1.040868	9.139044	0.098930	-0.355041	0.079335	39.979427407	116.338892949	46.896731
41325	36418624	-1.850565	0.961602	8.984490	0.090808	-0.343764	0.079642	39.979427406	116.338892948	46.896872
41326	36418649	-1.886464	0.857106	8.956211	0.077368	-0.342700	0.073953	39.979427406	116.338892947	46.897009
41327	36418674	-1.816280	0.808898	8.966734	0.073794	-0.337966	0.072797	39.979427405	116.338892946	46.895556
41329	36418699	-1.674348	0.799250	8.966779	0.068739	-0.328283	0.064158	39.979427404	116.338892946	46.895684
41331	36418724	-1.482674	0.862553	8.951151	0.068027	-0.312385	0.056566	39.979427403	116.338892945	46.895808
41332	36418749	-1.442524	0.970026	8.923565	0.061028	-0.291133	0.043638	39.979427403	116.338892944	46.895927
41333	36418774	-1.395944	0.936550	9.033904	0.066666	-0.271624	0.029494	39.979427509	116.338892700	46.887929
41334	36418799	-1.419349	0.949034	9.017961	0.066535	-0.245154	0.015360	39.979427508	116.338892699	46.887994
41335	36418824	-1.495083	1.001233	9.044696	0.065599	-0.222658	0.001787	39.979427507	116.338892698	46.888055
41336	36418849	-1.605365	1.032759	9.075344	0.057156	-0.203037	-0.013472	39.979427506	116.338892697	46.888113
41337	36418874	-1.714151	1.023375	9.031340	0.054759	-0.189449	-0.021850	39.979427505	116.338892696	46.889777
41338	36418899	-1.806719	1.023000	9.121745	0.055915	-0.178814	-0.029130	39.979427504	116.338892695	46.889829
41339	36418924	-1.939533	1.051105	9.343895	0.050688	-0.173539	-0.039656	39.979427503	116.338892693	46.889879
41340	36418949	-2.127121	1.129159	9.455794	0.045128	-0.164898	-0.044984	39.979427502	116.338892692	46.889928
41341	36418974	-2.242915	1.122253	9.476992	0.040027	-0.156851	-0.048360	39.979427501	116.338892691	46.889982
41342	36418999	-2.312029	0.999759	9.485862	0.036900	-0.157148	-0.051023	39.979427500	116.338892690	46.890031
41343	36419024	-2.274891	0.891117	9.454936	0.038998	-0.166081	-0.051688	39.979427499	116.338892689	46.890080
41344	36419049	-2.282156	0.863095	9.587855	0.035654	-0.168431	-0.048763	39.979427498	116.338892688	46.890130
41345	36419074	-2.302712	0.952538	9.593461	0.040978	-0.167385	-0.054054	39.979427497	116.338892687	46.893759
41346	36419099	-2.333031	0.967624	9.610798	0.032569	-0.173375	-0.049540	39.979427496	116.338892686	46.893812
41347	36419124	-2.393770	0.879613	9.587841	0.031811	-0.172386	-0.046727	39.979427495	116.338892685	46.893866
41348	36419149	-2.404822	0.861715	9.594428	0.032322	-0.181867	-0.050166	39.979427494	116.338892684	46.893920
41349	36419174	-2.406327	0.792873	9.600855	0.030223	-0.194597	-0.039259	39.979427493	116.338892683	46.893975
41350	36419199	-2.386960	0.842393	9.611677	0.032072	-0.198705	-0.039051	39.979427492	116.338892681	46.894031
41351	36419224	-2.359297	0.872766	9.579858	0.034654	-0.209539	-0.039898	39.979427491	116.338892680	46.894088
41352	36419249	-2.268213	0.822113	9.501271	0.028898	-0.209555	-0.037743	39.979427490	116.338892679	46.894145
41353	36419274	-2.134532	0.738314	9.457172	0.025673	-0.214766	-0.031990	39.979427489	116.338892678	46.892752
41354	36419299	-2.131750	0.708225	9.410495	0.031856	-0.216457	-0.030184	39.979427488	116.338892677	46.892807
41355	36419324	-2.162122	0.738340	9.454489	0.036420	-0.217327	-0.024879	39.979427487	116.338892676	46.892862
41356	36419349	-2.147072	0.712025	9.495650	0.038257	-0.213806	-0.018220	39.979427486	116.338892675	46.892916
41357	36419374	-2.166220	0.739747	9.446499	0.036371	-0.218293	-0.017983	39.979427485	116.338892674	46.892971
41358	36419399	-2.191143	0.661337	9.440904	0.037102	-0.215289	-0.007632	39.979427484	116.338892673	46.893024
41359	36419424	-2.253294	0.608891	9.479285	0.043094	-0.219031	-0.003633	39.979427483	116.338892672	46.893077
41360	36419449	-2.260605	0.641230	9.654976	0.038055	-0.226003	-0.000910	39.979427482	116.338892671	46.893130
41361	36419474	-2.303005	0.626670	9.513881	0.034747	-0.227351	0.017558	39.979427481	116.338892670	46.892746
41362	36419499	-2.311493	0.677105	9.633779	0.038098	-0.227477	0.029814	39.979427480	116.338892669	46.892800
41363	36419524	-2.378908	0.732179	9.632594	0.032811	-0.230697	0.041997	39.979427480	116.338892667	46.892855
41364	36419549	-2.356877	0.730831	9.633927	0.032184	-0.239797	0.046520	39.979427479	116.338892666	46.892910
41365	36419574	-2.269947	0.710410	9.574049	0.035988	-0.244042	0.054020	39.979427478	116.338892665	46.892965
41366	36419599	-2.229796	0.676278	9.490160	0.040475	-0.248635	0.059833	39.979427477	116.338892664	46.893021
41367	36419624	-2.179831	0.847098	9.438882	0.040939	-0.255355	0.070693	39.979427476	116.338892663	46.893077
41368	36419649	-2.116435	0.903388	9.477676	0.026679	-0.257261	0.072718	39.979427475	116.338892662	46.893133
41369	36419674	-2.054080	0.890157	9.334005	0.020948	-0.259854	0.080141	39.979427474	116.338892661	46.894758
41370	36419699	-1.994655	0.919231	9.279582	0.022285	-0.259900	0.081222	39.979427474	116.338892660	46.894812
41371	36419724	-2.025006	0.948050	9.307608	0.025037	-0.257488	0.074214	39.979427473	116.338892658	46.894865
41372	36419749	-2.022277	0.964502	9.327613	0.019281	-0.256081	0.070469	39.979427472	116.338892657	46.894916
41373	36419774	-2.092745	0.979322	9.416751	0.023128	-0.260259	0.066800	39.979427471	116.338892656	46.894968
41374	36419799	-2.123360	0.921156	9.501677	0.017184	-0.262864	0.069700	39.979427470	116.338892655	46.895018
41375	36419824	-2.149479	0.895242	9.453678	0.018460	-0.269137	0.073288	39.979427469	116.338892654	46.895067
41376	36419849	-2.184168	0.839943	9.516003	0.020520	-0.270264	0.074369	39.979427469	116.338892653	46.895117
41377	36419874	-2.282471	0.803564	9.680765	0.019541	-0.284064	0.073123	39.979427468	116.338892652	46.893691
41378	36419899	-2.369077	0.858841	9.621046	0.013126	-0.283594	0.086676	39.979427467	116.338892651	46.893741
41379	36419924	-2.333200	0.854754	9.611749	0.014666	-0.292924	0.092781	39.979427466	116.338892650	46.893792
41380	36419949	-2.308307	0.896052	9.607912	0.019893	-0.303221	0.097977	39.979427465	116.338892649	46.893843
41381	36419974	-2.239306	0.958017	9.600179	0.018176	-0.313646	0.106189	39.979427465	116.338892648	46.893895
41382	36419999	-2.065479	0.952765	9.519119	0.009264	-0.320374	0.103500	39.979427464	116.338892647	46.893947
41383	36420024	-2.084859	0.864763	9.506829	0.016434	-0.322586	0.108321	39.979427463	116.338892646	46.893999
41384	36420049	-2.121026	0.748919	9.560964	0.018142	-0.319730	0.113222	39.979427462	116.338892645	46.894052
41385	36420074	-2.061008	0.607860	9.742787	0.020418	-0.325854	0.113814	39.979427461	116.338892644	46.892635
41386	36420099	-2.055619	0.551438	9.747903	0.034250	-0.335242	0.113301	39.979427461	116.338892643	46.892688
41387	36420124	-2.071940	0.570984	9.668151	0.037615	-0.324360	0.121848	39.979427460	116.338892642	46.892742
41388	36420149	-1.947518	0.655257	9.578068	0.036503	-0.325473	0.130878	39.979427459	116.338892641	46.892795
41389	36420174	-1.860237	0.701305	9.402666	0.041896	-0.327013	0.137763	39.979427459	116.338892639	46.892845
41390	36420199	-1.787158	0.735645	9.417460	0.042936	-0.325459	0.135766	39.979427458	116.338892638	46.892897
41391	36420224	-1.548247	0.783085	9.236844	0.039074	-0.319052	0.135808	39.979427457	116.338892637	46.892947
41392	36420249	-1.462389	0.785067	9.066624	0.037870	-0.303622	0.131273	39.979427456	116.338892636	46.892994
41393	36420274	-1.429231	0.816795	9.044132	0.044008	-0.286941	0.126542	39.979427456	116.338892635	46.894630
41394	36420299	-1.272232	0.738249	9.062608	0.037198	-0.281093	0.127180	39.979427455	116.338892634	46.894670
41395	36420324	-1.222497	0.812618	9.049551	0.038485	-0.269443	0.115709	39.979427454	116.338892633	46.894707
41396	36420349	-1.171255	0.878949	8.976644	0.034672	-0.249544	0.109646	39.979427453	116.338892631	46.894739
41397	36420374	-1.236518	0.847982	9.154749	0.041594	-0.232312	0.099897	39.979427453	116.338892630	46.894768
41398	36420399	-1.396239	0.952525	9.169634	0.029996	-0.215952	0.093950	39.979427452	116.338892629	46.894793
41399	36420424	-1.507458	1.060349	9.064829	0.024775	-0.207028	0.094463	39.979427451	116.338892627	46.894814
41400	36420449	-1.506169	0.958526	9.044570	0.016691	-0.194244	0.086172	39.979427450	116.338892626	46.894833
41401	36420474	-1.453944	0.973468	9.115133	0.009175	-0.194842	0.079469	39.979427449	116.338892625	46.895916
41402	36420499	-1.454079	0.899086	9.118886	0.008976	-0.182937	0.080273	39.979427448	116.338892623	46.895928
41403	36420524	-1.418387	0.878255	9.166732	0.005917	-0.176491	0.075352	39.979427447	116.338892622	46.895937
41404	36420549	-1.434994	0.882289	9.195987	0.000115	-0.164793	0.070842	39.979427446	116.338892621	46.895943
41405	36420574	-1.501117	0.946846	9.226760	-0.001936	-0.159019	0.064048	39.979427445	116.338892619	46.895947
41406	36420599	-1.511680	1.160434	9.159619	-0.013180	-0.154027	0.062768	39.979427444	116.338892618	46.895948
41407	36420624	-1.476139	1.132578	9.267288	-0.019796	-0.146028	0.059576	39.979427444	116.338892617	46.895946
41408	36420649	-1.666820	1.131815	9.462736	-0.017475	-0.141409	0.056510	39.979427443	116.338892615	46.895942
41409	36420674	-1.604561	1.189847	9.399103	-0.029770	-0.131889	0.053270	39.979427442	116.338892614	46.893907
41410	36420699	-1.662238	1.225858	9.339332	-0.034119	-0.123455	0.050530	39.979427440	116.338892612	46.893899
41411	36420724	-1.591951	1.133825	9.284541	-0.048134	-0.116895	0.047848	39.979427439	116.338892611	46.893890
41412	36420749	-1.429346	1.056888	9.244471	-0.053035	-0.110234	0.044237	39.979427438	116.338892610	46.893879
41413	36420774	-1.345000	1.051801	9.131429	-0.051488	-0.106744	0.040863	39.979427437	116.338892608	46.893862
41414	36420799	-1.314690	1.046294	9.132752	-0.053906	-0.092998	0.029860	39.979427436	116.338892607	46.893844
41415	36420824	-1.342452	1.018520	9.189850	-0.056031	-0.081405	0.018793	39.979427435	116.338892606	46.893823
41416	36420849	-1.470816	1.014178	9.269573	-0.061856	-0.071602	0.022684	39.979427434	116.338892604	46.893800
41417	36420874	-1.539966	0.953372	9.329183	-0.064439	-0.062667	0.019580	39.979427433	116.338892603	46.892277
41418	36420899	-1.560605	0.982223	9.334600	-0.073470	-0.054415	0.016741	39.979427432	116.338892601	46.892249
41419	36420924	-1.539105	0.871573	9.493869	-0.068189	-0.050786	0.010571	39.979427430	116.338892600	46.892219
41420	36420949	-1.590346	0.714655	9.499972	-0.059855	-0.044304	0.013264	39.979427429	116.338892598	46.892188
41421	36420974	-1.529963	0.625014	9.544933	-0.055984	-0.030087	0.012532	39.979427428	116.338892597	46.892158
41422	36420999	-1.583586	0.612839	9.490329	-0.044397	-0.021857	0.014119	39.979427427	116.338892595	46.892126
41423	36421024	-1.622111	0.623894	9.482372	-0.043230	-0.015591	0.014558	39.979427426	116.338892594	46.892093
41424	36421049	-1.632958	0.669508	9.433292	-0.037085	-0.013362	0.012095	39.979427424	116.338892592	46.892058
41425	36421074	-1.635625	0.717693	9.422803	-0.024244	-0.009696	0.017023	39.979427423	116.338892591	46.890534
41426	36421099	-1.664733	0.666630	9.466516	-0.025053	-0.009346	0.019085	39.979427422	116.338892589	46.890496
41427	36421124	-1.704910	0.682809	9.553014	-0.020409	-0.002319	0.019991	39.979427421	116.338892588	46.890457
41429	36421149	-1.720226	0.723813	9.642249	-0.009978	-0.001019	0.018944	39.979427420	116.338892586	46.890418
41431	36421174	-1.707761	0.752682	9.638373	-0.005871	0.006151	0.016651	39.979427659	116.338892614	46.896504
41432	36421199	-1.651272	0.732088	9.627694	-0.000343	0.014748	0.028101	39.979427658	116.338892612	46.896483
41433	36421224	-1.713169	0.794017	9.623881	0.007343	0.023480	0.025521	39.979427657	116.338892611	46.896463
41434	36421249	-1.784757	0.780406	9.586546	0.006354	0.022404	0.033662	39.979427656	116.338892609	46.896442
41435	36421274	-1.774920	0.813693	9.525466	0.006634	0.032027	0.034221	39.979427655	116.338892608	46.895514
41436	36421299	-1.685120	0.783817	9.419002	0.009388	0.028767	0.039957	39.979427654	116.338892606	46.895492
41437	36421324	-1.561163	0.808398	9.455071	0.011154	0.037713	0.041352	39.979427653	116.338892605	46.895468
41438	36421349	-1.657576	0.889507	9.481893	0.006658	0.037581	0.040872	39.979427652	116.338892603	46.895444
41439	36421374	-1.728232	0.822999	9.598694	0.002967	0.046417	0.047734	39.979427651	116.338892602	46.895421
41440	36421399	-1.642608	0.857654	9.537659	0.006065	0.047144	0.041550	39.979427650	116.338892600	46.895395
41441	36421424	-1.574885	0.938969	9.511356	0.018711	0.056028	0.020011	39.979427649	116.338892599	46.895369
41442	36421449	-1.621903	0.936018	9.567186	0.032718	0.065263	0.009260	39.979427648	116.338892597	46.895343
41443	36421474	-1.771142	0.869442	9.702586	0.041226	0.074428	0.006051	39.979427647	116.338892596	46.897870
41444	36421499	-1.945018	0.841653	9.780862	0.031859	0.075921	0.016251	39.979427646	116.338892594	46.897846
41445	36421524	-1.998744	0.815590	9.762127	0.035536	0.066309	0.013086	39.979427645	116.338892592	46.897824
41446	36421549	-1.902235	0.748360	9.706094	0.044642	0.061820	0.017683	39.979427644	116.338892591	46.897802
41447	36421574	-1.882953	0.735976	9.706065	0.046542	0.059053	0.026794	39.979427643	116.338892589	46.897780
41448	36421599	-1.920579	0.628239	9.805447	0.038379	0.054467	0.040153	39.979427642	116.338892588	46.897760
41449	36421624	-1.863560	0.891317	9.751815	0.057513	0.054067	0.032155	39.979427641	116.338892586	46.897741
41450	36421649	-1.944727	0.971176	9.733408	0.058855	0.049515	0.024766	39.979427640	116.338892584	46.897724
41451	36421674	-1.944688	0.930039	9.706662	0.050735	0.045440	0.030413	39.979427639	116.338892583	46.897767
41452	36421699	-1.919776	0.853275	9.613312	0.050016	0.039518	0.031981	39.979427638	116.338892581	46.897751
41453	36421724	-1.937613	0.927599	9.626848	0.057535	0.038554	0.027585	39.979427637	116.338892580	46.897735
41454	36421749	-1.728317	0.899741	9.686748	0.056489	0.037967	0.029533	39.979427636	116.338892578	46.897719
41455	36421774	-1.795855	0.908092	9.677410	0.051525	0.042899	0.029299	39.979427635	116.338892576	46.897705
41456	36421799	-1.776485	0.938374	9.668215	0.048377	0.056952	0.029577	39.979427634	116.338892575	46.897691
41457	36421824	-1.812109	0.916686	9.581660	0.043157	0.054887	0.030665	39.979427633	116.338892573	46.897676
41458	36421849	-1.820200	0.900491	9.500456	0.044127	0.054218	0.032678	39.979427632	116.338892572	46.897662
41459	36421874	-1.818835	0.929289	9.523177	0.038260	0.051464	0.030001	39.979427631	116.338892570	46.896715
41460	36421899	-1.799494	0.941721	9.509915	0.026819	0.054868	0.032228	39.979427630	116.338892568	46.896699
41461	36421924	-1.712571	0.965248	9.482102	0.025491	0.061367	0.030777	39.979427629	116.338892567	46.896682
41462	36421949	-1.646218	0.979258	9.403721	0.015061	0.061968	0.027749	39.979427628	116.338892565	46.896664
41463	36421974	-1.702651	0.939524	9.360975	0.017126	0.065982	0.026003	39.979427627	116.338892564	46.896644
41464	36421999	-1.705733	0.908844	9.473941	0.019999	0.063330	0.022453	39.979427626	116.338892562	46.896623
41465	36422024	-1.766444	0.943052	9.529899	0.012134	0.067164	0.020504	39.979427625	116.338892560	46.896603
41466	36422049	-1.783014	0.970491	9.541948	0.011194	0.070724	0.021371	39.979427624	116.338892559	46.896581
41467	36422074	-1.792574	0.984370	9.520702	0.006972	0.071502	0.018325	39.979427623	116.338892557	46.894145
41468	36422099	-1.836643	0.983042	9.508691	0.002259	0.072308	0.017218	39.979427622	116.338892556	46.894121
41469	36422124	-1.866976	0.951394	9.496611	-0.005715	0.072058	0.024934	39.979427621	116.338892554	46.894098
41470	36422149	-1.745633	0.973489	9.478125	-0.015214	0.070180	0.028878	39.979427620	116.338892552	46.894073
41471	36422174	-1.640400	1.066259	9.329511	-0.008309	0.080571	0.014129	39.979427619	116.338892551	46.894045
41472	36422199	-1.709421	0.985022	9.330539	-0.012589	0.083260	0.008257	39.979427618	116.338892549	46.894018
41473	36422224	-1.717542	1.078652	9.322852	-0.019816	0.081691	0.004439	39.979427617	116.338892547	46.893989
41474	36422249	-1.676192	1.103360	9.337592	-0.025091	0.079127	-0.002061	39.979427616	116.338892546	46.893958
41475	36422274	-1.698337	1.077148	9.365420	-0.029024	0.086376	-0.004166	39.979427615	116.338892544	46.894033
41476	36422299	-1.752333	1.072664	9.458504	-0.028427	0.086485	-0.009245	39.979427614	116.338892543	46.894000
41477	36422324	-1.822846	1.047616	9.540845	-0.031361	0.085707	-0.006387	39.979427613	116.338892541	46.893966
41478	36422349	-1.901460	1.080491	9.580810	-0.037684	0.083505	-0.009887	39.979427612	116.338892539	46.893933
41479	36422374	-1.893124	1.102541	9.572915	-0.042829	0.081451	-0.008358	39.979427611	116.338892538	46.893901
41480	36422399	-1.905480	1.075137	9.535580	-0.044584	0.083204	-0.009502	39.979427609	116.338892536	46.893867
41481	36422424	-1.877908	1.039484	9.514180	-0.050747	0.079904	-0.010677	39.979427608	116.338892535	46.893833
41482	36422449	-1.871015	1.018857	9.492839	-0.052156	0.073993	-0.008613	39.979427607	116.338892533	46.893799
41483	36422474	-1.797845	1.036888	9.459683	-0.059305	0.075541	-0.011614	39.979427606	116.338892532	46.893873
41484	36422499	-1.792331	1.050625	9.459730	-0.061816	0.075194	-0.009751	39.979427605	116.338892530	46.893837
41485	36422524	-1.774221	1.057809	9.389256	-0.065647	0.077385	-0.015488	39.979427604	116.338892529	46.893801
41486	36422549	-1.710843	1.026195	9.371901	-0.070888	0.075999	-0.015904	39.979427603	116.338892527	46.893763
41487	36422574	-1.771620	0.987509	9.419631	-0.065425	0.077195	-0.019376	39.979427602	116.338892526	46.893724
41488	36422599	-1.849177	0.995199	9.567256	-0.063378	0.069749	-0.026006	39.979427600	116.338892524	46.893684
41489	36422624	-1.928105	0.989131	9.721506	-0.064623	0.067873	-0.028715	39.979427599	116.338892522	46.893645
41490	36422649	-1.991764	0.887162	9.761045	-0.062905	0.069655	-0.031590	39.979427598	116.338892521	46.893607
41491	36422674	-1.971115	0.848657	9.751615	-0.062338	0.069244	-0.025502	39.979427597	116.338892519	46.892170
41492	36422699	-1.879851	0.861467	9.630658	-0.056784	0.065883	-0.025827	39.979427596	116.338892518	46.892133
41493	36422724	-1.814732	0.866088	9.496347	-0.060447	0.071822	-0.018770	39.979427595	116.338892516	46.892096
41494	36422749	-1.743216	0.835698	9.532199	-0.056076	0.068942	-0.024751	39.979427593	116.338892515	46.892059
41495	36422774	-1.760914	0.857956	9.456450	-0.050847	0.076357	-0.027351	39.979427592	116.338892513	46.892019
41496	36422799	-1.765130	0.883968	9.503091	-0.054289	0.080958	-0.028701	39.979427591	116.338892512	46.891980
41497	36422824	-1.773257	0.910249	9.463263	-0.046949	0.080286	-0.030583	39.979427590	116.338892510	46.891940
41498	36422849	-1.784239	0.885663	9.423262	-0.044908	0.086470	-0.031078	39.979427589	116.338892509	46.891899
41499	36422874	-1.811802	0.881446	9.441872	-0.043681	0.091881	-0.032829	39.979427588	116.338892507	46.893005
41500	36422899	-1.902038	0.772029	9.634327	-0.041561	0.089803	-0.027861	39.979427586	116.338892505	46.892964
41501	36422924	-1.908759	0.801134	9.575895	-0.034781	0.087918	-0.030376	39.979427585	116.338892504	46.892923
41502	36422949	-1.758511	0.729732	9.529190	-0.028260	0.093609	-0.026497	39.979427584	116.338892502	46.892882
41503	36422974	-1.679751	0.712193	9.430741	-0.032011	0.099573	-0.029914	39.979427583	116.338892501	46.892837
41504	36422999	-1.589897	0.679648	9.293662	-0.022359	0.109521	-0.028214	39.979427582	116.338892499	46.892793
41505	36423024	-1.464251	0.668970	9.196599	-0.013067	0.122336	-0.033411	39.979427581	116.338892497	46.892746
41506	36423049	-1.507832	0.801578	9.069315	-0.015436	0.130022	-0.035383	39.979427579	116.338892496	46.892697
41507	36423074	-1.496780	0.859273	9.096117	-0.016592	0.136329	-0.032574	39.979427578	116.338892494	46.893785
41508	36423099	-1.440473	0.854921	9.154663	-0.015227	0.149748	-0.032383	39.979427577	116.338892492	46.893729
41509	36423124	-1.508302	0.842088	9.280948	-0.006396	0.169295	-0.043119	39.979427576	116.338892491	46.893671
41510	36423149	-1.649010	0.935231	9.400908	-0.010201	0.174563	-0.049746	39.979427575	116.338892489	46.893610
41511	36423174	-1.946850	0.987297	9.486038	-0.015955	0.179344	-0.054829	39.979427573	116.338892487	46.893554
41512	36423199	-1.923929	0.860142	9.626625	-0.000846	0.177488	-0.062926	39.979427572	116.338892485	46.893492
41513	36423224	-1.908505	0.673799	9.390564	-0.002475	0.182959	-0.061181	39.979427571	116.338892484	46.893431
41514	36423249	-1.657825	0.659789	9.454516	0.005792	0.191785	-0.055279	39.979427570	116.338892482	46.893368
41515	36423274	-1.620448	0.668324	9.378741	-0.003318	0.199579	-0.039177	39.979427568	116.338892480	46.892904
41516	36423299	-1.546774	0.747570	9.168865	0.007594	0.205280	-0.037774	39.979427567	116.338892478	46.892837
41517	36423324	-1.456949	0.811044	9.107947	0.010709	0.227076	-0.051749	39.979427566	116.338892476	46.892767
41518	36423349	-1.448742	0.856298	9.162646	0.014608	0.242139	-0.062956	39.979427565	116.338892475	46.892694
41519	36423374	-1.484509	0.962126	9.198889	0.022185	0.257678	-0.079718	39.979427563	116.338892473	46.892618
41520	36423399	-1.605941	1.141706	9.376347	0.007920	0.273718	-0.074640	39.979427562	116.338892471	46.892539
41521	36423424	-1.851540	1.275943	9.565533	-0.020875	0.289770	-0.073139	39.979427561	116.338892469	46.892460
41522	36423449	-1.811123	1.369997	9.438153	-0.029734	0.300953	-0.070769	39.979427559	116.338892467	46.892380
41523	36423474	-1.587684	1.140946	9.218035	-0.041991	0.323293	-0.071627	39.979427558	116.338892465	46.895520
41524	36423499	-1.561445	1.029730	9.159164	-0.046124	0.324814	-0.083706	39.979427556	116.338892463	46.895439
41525	36423524	-1.822309	1.106015	9.366807	-0.061871	0.327186	-0.086157	39.979427555	116.338892462	46.895355
41526	36423549	-1.832086	1.152633	9.422769	-0.077081	0.329338	-0.083399	39.979427553	116.338892460	46.895271
41527	36423574	-1.636285	1.156782	9.395005	-0.095236	0.350058	-0.083484	39.979427552	116.338892458	46.895188
41528	36423599	-1.693190	1.156289	9.543943	-0.106223	0.363676	-0.091176	39.979427550	116.338892456	46.895102
41529	36423624	-2.007697	1.088539	9.628711	-0.124867	0.380190	-0.091287	39.979427549	116.338892454	46.895016
41531	36423649	-1.982656	1.040912	9.499466	-0.125924	0.386684	-0.096695	39.979427547	116.338892452	46.894930
41533	36423674	-1.790601	0.966002	9.265220	-0.135769	0.396314	-0.093009	39.979427086	116.338892855	46.909840
41534	36423699	-1.753424	0.923416	9.247833	-0.151148	0.401473	-0.088176	39.979427084	116.338892854	46.909810
41535	36423724	-1.775553	0.845006	9.251536	-0.153492	0.409073	-0.087763	39.979427082	116.338892853	46.909777
41536	36423749	-1.874999	0.958630	9.399529	-0.172783	0.408989	-0.086474	39.979427079	116.338892852	46.909743
41537	36423774	-1.919025	1.076933	9.421162	-0.198275	0.423409	-0.076784	39.979427077	116.338892851	46.909711
41538	36423799	-1.825074	1.085536	9.328113	-0.210458	0.438117	-0.071996	39.979427075	116.338892849	46.909675
41539	36423824	-1.833584	0.854431	9.299441	-0.229162	0.452970	-0.066009	39.979427072	116.338892848	46.909638
41540	36423849	-1.906277	1.092607	9.294852	-0.223659	0.461085	-0.080155	39.979427070	116.338892847	46.909598
41541	36423874	-1.935098	1.032289	9.221481	-0.221676	0.467506	-0.093751	39.979427068	116.338892846	46.911024
41542	36423899	-1.957335	0.941401	9.245111	-0.234236	0.471433	-0.102383	39.979427065	116.338892844	46.910981
41543	36423924	-1.976869	0.884705	9.302110	-0.232096	0.474012	-0.106946	39.979427063	116.338892843	46.910937
41544	36423949	-1.895591	0.537883	9.704084	-0.214301	0.474298	-0.123806	39.979427061	116.338892842	46.910893
41545	36423974	-2.224999	0.338090	10.139595	-0.169715	0.462262	-0.152498	39.979427058	116.338892841	46.910859
41546	36423999	-2.913336	0.444384	10.438794	-0.163609	0.465852	-0.146651	39.979427056	116.338892839	46.910822
41547	36424024	-2.496090	0.569482	10.065573	-0.170523	0.481200	-0.122114	39.979427054	116.338892838	46.910789
41548	36424049	-2.150717	0.609143	9.769335	-0.185585	0.509433	-0.098971	39.979427051	116.338892837	46.910760
41549	36424074	-2.339655	0.744814	9.941303	-0.174601	0.517468	-0.089680	39.979427049	116.338892835	46.910708
41550	36424099	-2.557016	0.906218	9.849910	-0.170641	0.511356	-0.082824	39.979427046	116.338892834	46.910683
41551	36424124	-2.548687	0.767543	9.752327	-0.172825	0.507531	-0.084713	39.979427044	116.338892833	46.910660
41552	36424149	-2.197004	0.777611	9.631457	-0.159353	0.499274	-0.094996	39.979427042	116.338892832	46.910638
41553	36424174	-1.785512	0.685348	9.249660	-0.144738	0.509603	-0.101644	39.979427039	116.338892830	46.910608
41554	36424199	-1.893632	0.570310	9.479416	-0.132586	0.531814	-0.111854	39.979427037	116.338892829	46.910584
41555	36424224	-2.688047	0.696533	10.373315	-0.102116	0.523183	-0.117296	39.979427035	116.338892828	46.910562
41556	36424249	-2.856842	0.400463	10.409383	-0.089958	0.521396	-0.120403	39.979427032	116.338892826	46.910547
41557	36424274	-2.507483	0.052850	9.888286	-0.036784	0.535871	-0.133346	39.979427030	116.338892825	46.910033
41558	36424299	-2.025379	0.462086	9.697014	-0.039534	0.566143	-0.121191	39.979427028	116.338892824	46.910023
41559	36424324	-1.888634	0.183891	9.402294	-0.025302	0.589149	-0.089359	39.979427026	116.338892822	46.910013
41560	36424349	-2.115185	0.121066	9.637385	-0.017878	0.606692	-0.070825	39.979427023	116.338892821	46.910002
41561	36424374	-2.024118	0.331463	9.676633	-0.011533	0.612213	-0.045753	39.979427021	116.338892819	46.909992
41562	36424399	-1.814354	-0.020994	9.351080	0.002792	0.635457	-0.030667	39.979427019	116.338892817	46.909980
41563	36424424	-1.669167	0.464482	9.421905	0.015706	0.659344	-0.008494	39.979427017	116.338892816	46.909967
41564	36424449	-1.726555	0.459590	9.264971	0.013170	0.699535	0.005113	39.979427014	116.338892814	46.909951
41565	36424474	-1.850973	0.514126	9.421988	0.032553	0.724261	0.014643	39.979427012	116.338892812	46.911413
41566	36424499	-1.850313	0.527294	9.179953	0.037272	0.758529	0.022127	39.979427010	116.338892811	46.911395
41567	36424524	-1.783198	0.480438	9.282193	0.049439	0.784818	0.029011	39.979427007	116.338892809	46.911374
41568	36424549	-1.809744	0.460811	8.912355	0.106345	0.821528	0.011647	39.979427005	116.338892807	46.911350
41569	36424574	-1.739626	0.690152	9.084777	0.093007	0.860758	0.030628	39.979427003	116.338892805	46.911320
41570	36424599	-2.028535	0.397672	9.288522	0.132068	0.895395	0.021170	39.979427000	116.338892803	46.911289
41571	36424624	-2.210510	0.438919	9.297845	0.152336	0.931664	0.032963	39.979426998	116.338892801	46.911256
41572	36424649	-2.103950	0.575640	9.189155	0.182742	0.974706	0.036865	39.979426995	116.338892799	46.911222
41573	36424674	-2.086064	0.332424	9.083392	0.237221	1.021627	0.028536	39.979426993	116.338892797	46.907683
41574	36424699	-2.145233	0.649705	9.238668	0.274250	1.072176	0.039957	39.979426991	116.338892795	46.907641
41575	36424724	-2.181645	0.475964	9.336549	0.289537	1.099897	0.038290	39.979426988	116.338892793	46.907598
41576	36424749	-2.394690	0.566045	9.185042	0.317662	1.141228	0.039156	39.979426986	116.338892791	46.907553
41577	36424774	-2.219660	0.479441	9.136967	0.344029	1.186100	0.041911	39.979426983	116.338892789	46.907504
41578	36424799	-2.133172	0.463720	9.288646	0.360705	1.214634	0.039321	39.979426981	116.338892786	46.907455
41579	36424824	-2.444224	0.774892	9.252359	0.363001	1.247459	0.052235	39.979426979	116.338892784	46.907404
41580	36424849	-2.513094	0.865300	9.372169	0.361766	1.286784	0.058955	39.979426976	116.338892782	46.907353
41581	36424874	-2.298139	0.739266	9.217570	0.372516	1.302106	0.052014	39.979426974	116.338892780	46.909320
41582	36424899	-2.224318	0.850155	9.013174	0.376184	1.329639	0.041229	39.979426971	116.338892777	46.909266
41583	36424924	-2.083651	0.947642	9.050808	0.392759	1.376701	0.042026	39.979426969	116.338892775	46.909209
41584	36424949	-2.101714	1.113614	9.192411	0.375313	1.406843	0.038227	39.979426966	116.338892773	46.909149
41585	36424974	-2.239555	0.950492	9.056139	0.385411	1.440770	0.021264	39.979426963	116.338892770	46.909088
41586	36424999	-2.509630	0.756651	8.998103	0.412642	1.482312	0.007758	39.979426961	116.338892768	46.909023
41587	36425024	-2.627037	0.967754	9.207642	0.420788	1.527702	0.002523	39.979426958	116.338892766	46.908956
41588	36425049	-2.874354	1.027414	9.486992	0.434609	1.563729	-0.009453	39.979426955	116.338892763	46.908890
41589	36425074	-3.152189	1.217715	9.382375	0.438702	1.584026	-0.016525	39.979426953	116.338892761	46.907333
41590	36425099	-3.070773	1.021615	9.208686	0.448999	1.602634	-0.031148	39.979426950	116.338892758	46.907267
41591	36425124	-2.871884	0.776411	9.604464	0.473293	1.625748	-0.044456	39.979426947	116.338892756	46.907201
41592	36425149	-2.807798	0.437519	10.078144	0.519436	1.655084	-0.054142	39.979426945	116.338892753	46.907138
41593	36425174	-2.562041	0.439633	9.864262	0.526615	1.711324	-0.049968	39.979426942	116.338892751	46.907083
41594	36425199	-2.290556	0.778273	9.462495	0.523165	1.778026	-0.029273	39.979426939	116.338892748	46.907024
41595	36425224	-2.256374	0.979022	9.155951	0.540525	1.834813	-0.024989	39.979426936	116.338892745	46.906963
41596	36425249	-2.390848	1.277456	9.191456	0.539156	1.897379	-0.032385	39.979426934	116.338892743	46.906900
41597	36425274	-3.028060	1.447721	9.384832	0.599507	1.973852	-0.049651	39.979426931	116.338892740	46.908379
41598	36425299	-3.379163	1.635407	9.540558	0.521057	2.028721	-0.057435	39.979426928	116.338892737	46.908319
41599	36425324	-3.085283	1.620356	9.222557	0.555775	2.037100	-0.085558	39.979426925	116.338892735	46.908260
41600	36425349	-2.763325	1.790010	9.047813	0.562010	2.088527	-0.121921	39.979426922	116.338892732	46.908201
41601	36425374	-2.937252	1.654981	9.129830	0.564104	2.154157	-0.146906	39.979426919	116.338892729	46.908134
41602	36425399	-2.960094	1.427251	9.283337	0.597563	2.241388	-0.180248	39.979426916	116.338892727	46.908073
41603	36425424	-2.679388	1.411131	9.509183	0.592176	2.322825	-0.192133	39.979426913	116.338892724	46.908013
41604	36425449	-2.446102	0.605954	9.943440	0.633490	2.391471	-0.217051	39.979426909	116.338892721	46.907954
41605	36425474	-1.905686	0.071407	10.006578	0.696897	2.474347	-0.252973	39.979426906	116.338892718	46.909431
41606	36425499	-2.689657	0.621969	9.738807	0.710125	2.584774	-0.241466	39.979426903	116.338892715	46.909376
41607	36425524	-4.724442	1.303268	10.771558	0.658430	2.628571	-0.194532	39.979426900	116.338892712	46.909327
41608	36425549	-0.957247	1.877917	8.702119	0.598616	2.553249	-0.191272	39.979426896	116.338892708	46.909280
41609	36425574	-0.561387	1.196866	7.137348	0.582912	2.719389	-0.218276	39.979426892	116.338892705	46.909180
41610	36425599	-1.795170	1.597911	8.466238	0.642176	2.946695	-0.276618	39.979426889	116.338892702	46.909106
41611	36425624	-4.487177	1.390301	10.102548	0.658182	3.055366	-0.290013	39.979426885	116.338892698	46.909033
41612	36425649	-6.241628	1.332280	10.134745	0.688965	3.090353	-0.317029	39.979426882	116.338892695	46.908971
41613	36425674	-4.673989	1.478417	8.200875	0.525911	3.033200	-0.312256	39.979426878	116.338892692	46.911472
41614	36425699	-2.341990	1.727171	6.671661	0.583199	3.141538	-0.380779	39.979426874	116.338892688	46.911408
41615	36425724	-0.509332	2.660393	7.760254	0.558649	3.372829	-0.437546	39.979426871	116.338892685	46.911329
41616	36425749	-4.123791	2.177766	9.260399	0.652618	3.625272	-0.514356	39.979426867	116.338892682	46.911243
41617	36425774	-7.655643	1.686738	10.789066	0.570389	3.761914	-0.507999	39.979426863	116.338892678	46.911236
41618	36425799	-5.734743	1.399637	9.719572	0.449726	3.701209	-0.510942	39.979426859	116.338892675	46.911179
41619	36425824	-0.809351	1.364370	6.723689	0.434523	3.796680	-0.555315	39.979426855	116.338892672	46.911116
41620	36425849	2.304665	1.946744	7.065851	0.428655	4.173857	-0.677175	39.979426851	116.338892668	46.911027
41621	36425874	0.101123	3.347429	9.589265	0.597147	4.518952	-0.831174	39.979426846	116.338892664	46.914957
41622	36425899	-4.091793	1.398062	11.690917	0.579250	4.647688	-0.894939	39.979426842	116.338892660	46.914857
41623	36425924	-5.772866	1.947560	12.337213	0.639375	4.591968	-0.966394	39.979426837	116.338892657	46.914776
41624	36425949	-2.052172	1.190341	11.635401	0.711104	4.544583	-1.098365	39.979426832	116.338892652	46.914711
41625	36425974	0.655470	0.612900	11.920646	0.899009	4.729274	-1.285786	39.979426827	116.338892647	46.914616
41626	36425999	-0.012751	0.237586	14.763693	0.969491	4.964798	-1.424394	39.979426821	116.338892643	46.914560
41627	36426024	-0.663923	-0.570183	13.594859	1.083612	5.163117	-1.539906	39.979426816	116.338892637	46.914517
41628	36426049	-2.206761	-0.932559	10.637141	1.146006	5.450927	-1.618635	39.979426810	116.338892631	46.914478
41629	36426074	-5.315714	-0.009372	8.563372	1.171573	5.656799	-1.701623	39.979426805	116.338892626	46.914351
41630	36426099	-6.619071	2.083127	8.285328	1.230330	5.797344	-1.817021	39.979426800	116.338892620	46.914316
41631	36426124	-2.740442	4.508449	10.420923	1.000975	5.891728	-1.923578	39.979426794	116.338892614	46.914286
41634	36426149	-0.839726	4.399956	11.089638	0.819637	6.085966	-2.091109	39.979426788	116.338892608	46.914258
41635	36426174	-2.669587	4.189533	10.883365	0.789398	6.302442	-2.317026	39.979426000	116.338893228	46.927469
41636	36426199	-4.237550	4.268372	10.277785	0.533629	6.415822	-2.486015	39.979425992	116.338893223	46.927499
41637	36426224	-2.714949	3.680592	9.924102	0.420412	6.510672	-2.668368	39.979425984	116.338893218	46.927532
41638	36426249	-4.341045	1.523985	10.381419	0.389863	6.688779	-2.926665	39.979425976	116.338893212	46.927567
41639	36426274	-6.364455	0.877440	12.240361	0.501081	6.839961	-3.181351	39.979425967	116.338893206	46.926057
41640	36426299	-3.524053	-1.637683	9.967049	0.875125	6.974776	-3.479092	39.979425958	116.338893200	46.926113
41641	36426324	-2.584763	-2.374617	7.903925	1.309390	7.311046	-3.796721	39.979425950	116.338893193	46.926160
41642	36426349	-4.148261	-0.048909	9.561393	1.619104	7.507271	-3.930204	39.979425941	116.338893186	46.926197
41643	36426374	-4.013106	6.856616	12.571096	1.624361	7.580779	-3.823708	39.979425931	116.338893180	46.926272
41644	36426399	-1.614001	6.470945	12.250014	1.081860	7.650625	-3.716577	39.979425921	116.338893173	46.926321
41645	36426424	0.781905	4.614800	12.383215	0.749714	7.782022	-3.600603	39.979425911	116.338893165	46.926363
41646	36426449	-11.897278	3.627301	13.227495	0.256044	7.950030	-3.487158	39.979425900	116.338893158	46.926423
41647	36426474	-25.700468	10.720818	12.843336	-0.708022	8.256955	-3.141926	39.979425890	116.338893152	47.100126
41648	36426499	-13.588093	13.913699	12.644846	-1.843248	7.823710	-3.076002	39.979425879	116.338893145	47.129109
41649	36426524	-3.338443	15.447930	6.334574	-1.984665	7.688742	-3.547935	39.979425867	116.338893139	47.158113
41650	36426549	-0.733417	11.677005	6.946522	-1.719894	7.926572	-3.948401	39.979425854	116.338893133	47.187093
41651	36426574	-4.892038	6.280884	9.822578	-1.926332	8.115507	-4.167548	39.979425841	116.338893126	47.215960
41652	36426599	-7.919165	4.482391	15.825367	-2.195969	8.109453	-4.244826	39.979425828	116.338893120	47.244940
41653	36426624	-7.192056	6.458848	20.481004	-2.147055	7.765902	-4.228536	39.979425813	116.338893113	47.273957
41654	36426649	-2.039671	8.085885	18.071989	-2.405330	7.683956	-4.173842	39.979425798	116.338893106	47.302997
41655	36426674	1.352450	6.435130	14.501497	-2.844648	7.806523	-4.148345	39.979425782	116.338893098	46.250268
41656	36426699	4.074455	3.309881	11.365798	-3.172974	8.090630	-4.236622	39.979425765	116.338893090	46.157918
41657	36426724	-0.320582	4.298911	8.308818	-3.678583	8.079580	-4.109391	39.979425748	116.338893082	46.065524
41658	36426749	-13.514383	2.031591	8.562631	-4.458656	8.111065	-3.673388	39.979425730	116.338893073	45.973128
41659	36426774	-11.326549	3.495055	14.747601	-4.746944	8.021210	-3.569117	39.979425713	116.338893065	45.880944
41660	36426799	-8.719991	8.861738	21.300672	-4.395205	7.342985	-3.371745	39.979425694	116.338893056	45.788623
41661	36426824	-18.556186	14.991759	33.367858	-3.785552	6.373969	-2.873401	39.979425674	116.338893046	45.696374
41662	36426849	-30.755022	13.944365	42.059055	-2.397241	5.264825	-2.241136	39.979425652	116.338893036	45.604282
41663	36426874	-37.434677	9.986693	45.837719	-0.865873	4.283348	-1.849299	39.979425627	116.338893024	47.495130
41664	36426899	-37.184407	12.100147	53.704161	0.209383	3.310976	-1.827613	39.979425602	116.338893012	47.617047
41665	36426924	-30.012264	17.330005	61.106991	0.909513	2.251249	-1.862973	39.979425574	116.338892998	47.739205
41666	36426949	-19.005970	21.795703	65.173779	0.971377	1.359775	-1.940360	39.979425543	116.338892982	47.861555
41667	36426974	-12.254598	20.104873	61.768051	0.294055	0.895140	-1.615873	39.979425508	116.338892964	47.983800
41668	36426999	-12.748845	16.467312	54.007224	0.001743	0.585258	-1.271254	39.979425471	116.338892944	48.106398
41669	36427024	-14.318628	16.119765	45.143566	0.217848	0.128298	-1.060017	39.979425432	116.338892923	48.229097
41670	36427049	-13.091554	15.294187	38.825398	0.622538	-0.461404	-0.865309	39.979425391	116.338892901	48.351884
41671	36427074	-10.323244	13.866193	34.984635	1.068591	-1.008778	-0.680715	39.979425349	116.338892879	45.912765
41672	36427099	-7.023611	13.398122	32.098204	1.337926	-1.446937	-0.549546	39.979425304	116.338892855	45.780294
41673	36427124	-3.503816	13.226124	29.163236	1.251173	-1.801838	-0.403618	39.979425257	116.338892830	45.647842
41674	36427149	-0.984900	12.624221	25.045401	0.903138	-2.094027	-0.266613	39.979425210	116.338892805	45.515385
41675	36427174	0.918182	11.300350	20.226242	0.501070	-2.301424	-0.168400	39.979425161	116.338892779	45.382792
41676	36427199	2.025854	10.448879	16.580014	0.032647	-2.400392	-0.149501	39.979425111	116.338892752	45.250269
41677	36427224	3.495297	9.762139	12.924870	-0.420984	-2.519552	-0.075106	39.979425059	116.338892725	45.117691
41678	36427249	4.127533	9.091023	8.842914	-0.725260	-2.623740	-0.061607	39.979425007	116.338892697	44.985045
41679	36427274	4.920745	6.767203	0.360274	-0.287201	-2.625317	0.011060	39.979424956	116.338892671	47.643878
41680	36427299	2.216304	3.877914	-0.338971	0.113321	-2.494019	-0.152713	39.979424903	116.338892643	47.697575
41681	36427324	2.971661	5.942190	3.665825	0.173155	-2.566362	-0.306553	39.979424849	116.338892616	47.751196
41682	36427349	3.735724	6.429473	4.611719	-0.053308	-2.593972	-0.329018	39.979424796	116.338892589	47.804741
41683	36427374	4.039786	5.388790	3.987855	-0.265931	-2.470578	-0.290455	39.979424741	116.338892561	47.858203
41684	36427399	3.645328	4.715961	2.916802	-0.287666	-2.308152	-0.305476	39.979424687	116.338892533	47.911589
41685	36427424	3.147818	4.599275	2.853649	-0.288433	-2.253012	-0.305124	39.979424632	116.338892506	47.964898
41686	36427449	2.795144	4.244749	3.094395	-0.307624	-2.253181	-0.276120	39.979424577	116.338892478	48.018131
41687	36427474	2.686213	4.150753	3.574385	-0.305842	-2.241394	-0.242626	39.979424521	116.338892451	46.188008
41688	36427499	2.673445	4.244473	4.282307	-0.269492	-2.203430	-0.215704	39.979424466	116.338892423	46.147755
41689	36427524	2.521423	4.449008	5.163289	-0.230581	-2.174903	-0.181182	39.979424409	116.338892395	46.107435
41690	36427549	2.217865	4.546625	5.932392	-0.185368	-2.167559	-0.124900	39.979424353	116.338892367	46.067050
41691	36427574	1.790345	4.886274	6.781815	-0.126276	-2.184397	-0.076129	39.979424296	116.338892339	46.026623
41692	36427599	1.368157	5.136162	7.685645	-0.020714	-2.204247	-0.026260	39.979424238	116.338892311	45.986122
41693	36427624	0.964621	5.352116	8.820831	0.055331	-2.243574	0.057243	39.979424180	116.338892282	45.945569
41694	36427649	0.514015	5.749485	9.694511	0.135282	-2.301598	0.131290	39.979424121	116.338892254	45.904971
41695	36427674	0.172159	5.947817	10.382754	0.230441	-2.360592	0.213148	39.979424062	116.338892225	47.125439
41696	36427699	-0.161131	6.280983	11.100656	0.285671	-2.445828	0.307835	39.979424002	116.338892196	47.134308
41697	36427724	-0.481722	6.562501	11.658813	0.337539	-2.536610	0.399872	39.979423942	116.338892166	47.143143
41698	36427749	-0.709795	6.805914	12.074606	0.390253	-2.635264	0.494047	39.979423881	116.338892136	47.151947
41699	36427774	-0.842260	7.196675	12.437749	0.401654	-2.742308	0.594654	39.979423819	116.338892106	47.160737
41700	36427799	-0.966382	7.255462	12.565489	0.387948	-2.860410	0.701267	39.979423756	116.338892076	47.169487
41701	36427824	-1.042792	7.395278	12.386457	0.408989	-2.961160	0.784311	39.979423693	116.338892046	47.178211
41702	36427849	-0.950525	7.334697	12.337115	0.406043	-3.064811	0.885940	39.979423628	116.338892015	47.186910
41703	36427874	-1.015623	7.268557	12.024183	0.367212	-3.175669	0.984706	39.979423564	116.338891984	46.933112
41704	36427899	-1.032504	7.179839	11.469203	0.367321	-3.269199	1.063118	39.979423498	116.338891953	46.933225
41705	36427924	-0.883187	6.892069	11.130599	0.344859	-3.354303	1.151557	39.979423432	116.338891922	46.933311
41706	36427949	-0.776154	6.482411	10.603766	0.299754	-3.441741	1.251721	39.979423365	116.338891891	46.933370
41707	36427974	-0.801211	6.260664	9.952422	0.274175	-3.503896	1.327132	39.979423298	116.338891859	46.933393
41708	36427999	-0.710384	5.964570	9.254536	0.283348	-3.546086	1.388990	39.979423230	116.338891828	46.933392
41709	36428024	-0.776738	5.412376	8.950660	0.244088	-3.587491	1.464891	39.979423162	116.338891796	46.933359
41710	36428049	-0.819239	5.189204	8.328847	0.213096	-3.638182	1.528934	39.979423093	116.338891764	46.933293
41711	36428074	-0.535852	4.578522	7.491775	0.205929	-3.655340	1.595876	39.979423023	116.338891732	46.770552
41712	36428099	-0.511361	4.025968	7.236601	0.195905	-3.675386	1.655030	39.979422953	116.338891699	46.765908
41713	36428124	-0.831985	3.755349	6.426866	0.233019	-3.697331	1.680057	39.979422883	116.338891667	46.761227
41714	36428149	-0.763713	3.127502	6.149726	0.263901	-3.705676	1.723269	39.979422813	116.338891635	46.756509
41715	36428174	-0.657116	2.615663	6.050825	0.272938	-3.708874	1.755342	39.979422742	116.338891602	46.751750
41716	36428199	-0.481562	2.227879	5.661093	0.275963	-3.707117	1.799259	39.979422671	116.338891570	46.746956
41717	36428224	-0.707821	1.626079	5.369073	0.359924	-3.671436	1.808686	39.979422599	116.338891537	46.742122
41718	36428249	-0.650963	1.340068	5.647458	0.414437	-3.645815	1.817792	39.979422528	116.338891504	46.737251
41719	36428274	-0.850373	0.982830	5.837504	0.460056	-3.636704	1.834496	39.979422456	116.338891471	46.942458
41720	36428299	-1.114987	0.624120	6.098342	0.509327	-3.624400	1.840956	39.979422384	116.338891438	46.942593
41721	36428324	-1.215697	0.317197	6.477769	0.573147	-3.615340	1.850981	39.979422312	116.338891404	46.942695
41722	36428349	-1.363194	0.081608	6.919886	0.634158	-3.607863	1.849193	39.979422239	116.338891371	46.942769
41723	36428374	-1.502705	-0.202336	7.393749	0.693040	-3.602857	1.850767	39.979422167	116.338891337	46.942830
41724	36428399	-1.585485	-0.421625	7.886493	0.754486	-3.607884	1.849932	39.979422094	116.338891302	46.942854
41725	36428424	-1.741540	-0.565455	8.435306	0.814178	-3.621823	1.841500	39.979422021	116.338891268	46.942858
41726	36428449	-1.940120	-0.629548	9.009617	0.862589	-3.633329	1.830208	39.979421948	116.338891233	46.942845
41727	36428474	-2.156625	-0.664772	9.610688	0.905789	-3.659059	1.814818	39.979421874	116.338891198	47.047007
41728	36428499	-2.396304	-0.624081	10.125476	0.939973	-3.689782	1.808367	39.979421801	116.338891162	47.049202
41729	36428524	-2.590243	-0.558438	10.624476	0.956211	-3.727223	1.801805	39.979421727	116.338891127	47.051390
41730	36428549	-2.814298	-0.467693	11.015663	0.975701	-3.764035	1.784721	39.979421653	116.338891090	47.053576
41731	36428574	-2.898167	-0.428188	11.497476	0.955293	-3.807795	1.796607	39.979421579	116.338891054	47.055777
41732	36428599	-3.145194	-0.350599	11.750144	0.948282	-3.864880	1.780954	39.979421505	116.338891017	47.057966
41733	36428624	-3.373034	-0.028142	12.011914	0.986501	-3.910024	1.746653	39.979421430	116.338890980	47.060159
41734	36428649	-3.429710	-0.083031	12.666161	0.960611	-3.962181	1.743674	39.979421355	116.338890942	47.062362
41737	36428674	-3.668289	-0.025810	12.863005	0.930122	-4.019133	1.751530	39.979425307	116.338894685	47.019201
41738	36428699	-3.893610	0.016033	13.079898	0.921564	-4.068409	1.739571	39.979425280	116.338894694	47.019596
41739	36428724	-4.042835	0.081141	13.342099	0.910263	-4.126189	1.737565	39.979425254	116.338894703	47.020007
41740	36428749	-4.196280	0.029614	13.516090	0.874502	-4.191526	1.743292	39.979425227	116.338894712	47.020436
41741	36428774	-4.379791	0.054092	13.623760	0.866232	-4.249769	1.735952	39.979425200	116.338894721	47.020894
41742	36428799	-4.535960	0.014994	13.759267	0.852384	-4.299913	1.740871	39.979425172	116.338894729	47.021365
41743	36428824	-4.726341	0.051821	13.874927	0.837604	-4.353059	1.742950	39.979425145	116.338894737	47.021858
41744	36428849	-4.953903	0.030992	13.931948	0.835229	-4.398324	1.753479	39.979425117	116.338894745	47.022376
41745	36428874	-5.136071	0.030656	14.043641	0.827964	-4.446009	1.758226	39.979425089	116.338894752	47.027390
41746	36428899	-5.345669	-0.010717	14.068553	0.819250	-4.494005	1.766974	39.979425061	116.338894759	47.027963
41747	36428924	-5.572697	-0.008870	13.971373	0.828128	-4.528875	1.775908	39.979425033	116.338894766	47.028564
41748	36428949	-5.652353	0.020529	13.854533	0.825543	-4.565577	1.787257	39.979425004	116.338894772	47.029195
41749	36428974	-5.660408	-0.028684	13.747810	0.821214	-4.587992	1.801786	39.979424976	116.338894779	47.029854
41750	36428999	-5.821220	-0.109245	13.593028	0.825579	-4.617672	1.801726	39.979424947	116.338894785	47.030542
41751	36429024	-6.044108	-0.259656	13.339678	0.825402	-4.637891	1.813373	39.979424919	116.338894791	47.031259
41752	36429049	-6.145406	-0.346464	13.036214	0.817663	-4.656671	1.820867	39.979424890	116.338894796	47.032004
41753	36429074	-6.132208	-0.385030	12.674300	0.820693	-4.668399	1.816374	39.979424861	116.338894802	47.055560
41754	36429099	-6.103954	-0.392146	12.368348	0.811821	-4.667105	1.821821	39.979424833	116.338894807	47.056358
41755	36429124	-6.076933	-0.425176	12.014389	0.808510	-4.652529	1.823309	39.979424804	116.338894813	47.057178
41756	36429149	-6.091764	-0.477981	11.754768	0.804619	-4.634717	1.814213	39.979424775	116.338894818	47.058020
41757	36429174	-6.123121	-0.511884	11.626891	0.797390	-4.610810	1.809190	39.979424747	116.338894823	47.058875
41758	36429199	-6.150341	-0.588314	11.445564	0.785727	-4.577683	1.803486	39.979424718	116.338894827	47.059757
41759	36429224	-6.240085	-0.654137	11.409630	0.780663	-4.537771	1.787479	39.979424689	116.338894832	47.060658
41760	36429249	-6.296258	-0.686584	11.244425	0.775788	-4.494321	1.778629	39.979424661	116.338894837	47.061578
41761	36429274	-6.311396	-0.746936	11.188359	0.769873	-4.450197	1.760726	39.979424633	116.338894841	47.097911
41762	36429299	-6.335965	-0.689004	11.143195	0.766501	-4.399468	1.748554	39.979424604	116.338894846	47.098870
41763	36429324	-6.468453	-0.686278	11.143143	0.754625	-4.349354	1.732914	39.979424576	116.338894850	47.099848
41764	36429349	-6.545651	-0.645057	11.185869	0.746338	-4.303583	1.715057	39.979424548	116.338894854	47.100843
41765	36429374	-6.571664	-0.563975	11.214073	0.728641	-4.254772	1.704334	39.979424520	116.338894858	47.101859
41766	36429399	-6.567902	-0.522956	11.283431	0.725227	-4.198218	1.687534	39.979424492	116.338894863	47.102892
41767	36429424	-6.564154	-0.435638	11.489892	0.718527	-4.144327	1.662475	39.979424465	116.338894867	47.103945
41768	36429449	-6.655480	-0.360705	11.681572	0.706943	-4.092402	1.645456	39.979424437	116.338894871	47.105018
41769	36429474	-6.682857	-0.219161	11.736647	0.680028	-4.039207	1.623233	39.979424409	116.338894875	47.080721
41770	36429499	-6.732079	-0.103509	12.092075	0.666632	-3.979734	1.594003	39.979424382	116.338894879	47.081837
41771	36429524	-6.905517	0.070602	12.603210	0.646955	-3.936009	1.565814	39.979424355	116.338894883	47.082977
41772	36429549	-7.221196	0.238912	13.247450	0.625676	-3.893492	1.533109	39.979424328	116.338894887	47.084148
41773	36429574	-7.491535	0.494645	14.042251	0.606757	-3.859521	1.511904	39.979424301	116.338894891	47.085374
41774	36429599	-7.859777	0.722856	14.855582	0.580699	-3.830177	1.489402	39.979424274	116.338894895	47.086618
41775	36429624	-8.288711	0.981306	15.683471	0.560405	-3.820019	1.462929	39.979424248	116.338894899	47.087908
41776	36429649	-8.767300	1.181731	16.600574	0.538879	-3.819830	1.445745	39.979424221	116.338894903	47.089249
41777	36429674	-9.018463	1.311161	17.343357	0.516339	-3.837886	1.426688	39.979424195	116.338894907	47.123380
41778	36429699	-9.382513	1.350675	18.140870	0.482250	-3.868535	1.422094	39.979424169	116.338894912	47.124843
41779	36429724	-10.057390	1.543048	18.682600	0.479209	-3.896424	1.411313	39.979424144	116.338894916	47.126373
41780	36429749	-10.357512	1.749028	19.179713	0.479845	-3.926884	1.390665	39.979424118	116.338894920	47.127974
41781	36429774	-10.594639	1.687588	19.437363	0.449512	-3.983695	1.388449	39.979424093	116.338894925	47.129663
41782	36429799	-10.865356	1.592450	19.555357	0.458635	-4.045149	1.383149	39.979424068	116.338894930	47.131411
41783	36429824	-10.876927	1.605711	19.664538	0.474704	-4.094943	1.364230	39.979424043	116.338894934	47.133234
41784	36429849	-10.908246	1.483043	19.707986	0.480262	-4.153618	1.350881	39.979424019	116.338894939	47.135131
41785	36429874	-11.035033	1.428743	19.541422	0.498817	-4.190894	1.341932	39.979423995	116.338894945	47.157141
41786	36429899	-11.212225	1.340039	19.366751	0.533664	-4.239721	1.330575	39.979423971	116.338894950	47.159187
41787	36429924	-11.330238	1.393169	19.128666	0.556056	-4.278845	1.319228	39.979423947	116.338894956	47.161305
41788	36429949	-11.488921	1.341050	18.753416	0.593603	-4.331633	1.313352	39.979423924	116.338894961	47.163492
41789	36429974	-11.450934	1.480070	18.378802	0.616800	-4.361308	1.310749	39.979423902	116.338894967	47.165733
41790	36429999	-11.517219	1.492712	17.939623	0.650468	-4.396073	1.296168	39.979423880	116.338894974	47.168050
41791	36430024	-11.513260	1.519394	17.449181	0.680659	-4.414861	1.291524	39.979423858	116.338894980	47.170426
41792	36430049	-11.508993	1.605085	17.001010	0.709775	-4.435163	1.290527	39.979423837	116.338894987	47.172860
41793	36430074	-11.608647	1.751184	16.560969	0.726986	-4.445774	1.293616	39.979423816	116.338894994	47.165793
41794	36430099	-11.603954	1.970891	15.987378	0.749722	-4.451174	1.294361	39.979423795	116.338895002	47.168329
41795	36430124	-11.584990	2.118284	15.577847	0.775047	-4.446027	1.286106	39.979423775	116.338895010	47.170911
41796	36430149	-11.591965	2.186256	15.064643	0.786962	-4.434355	1.294015	39.979423756	116.338895018	47.173536
41797	36430174	-11.619675	2.281491	14.645930	0.804269	-4.414856	1.300855	39.979423737	116.338895027	47.176184
41798	36430199	-11.644950	2.373616	14.272363	0.817117	-4.387504	1.312329	39.979423718	116.338895036	47.178886
41799	36430224	-11.710123	2.453278	13.959973	0.835453	-4.357459	1.325932	39.979423700	116.338895045	47.181621
41800	36430249	-11.792078	2.538413	13.652889	0.837578	-4.326123	1.336270	39.979423682	116.338895055	47.184388
41801	36430274	-11.871131	2.601597	13.323165	0.854027	-4.287405	1.363008	39.979423665	116.338895066	47.199762
41802	36430299	-11.957118	2.703212	13.025505	0.865670	-4.246268	1.377492	39.979423649	116.338895077	47.202587
41803	36430324	-11.924677	2.775906	12.709127	0.870495	-4.204345	1.397127	39.979423633	116.338895089	47.205435
41804	36430349	-11.930562	2.850010	12.418130	0.870897	-4.155241	1.426677	39.979423617	116.338895101	47.208304
41805	36430374	-11.990414	2.915581	12.189487	0.871965	-4.106716	1.455747	39.979423602	116.338895113	47.211180
41806	36430399	-12.055806	3.020023	11.849110	0.862385	-4.042959	1.487224	39.979423587	116.338895126	47.214085
41807	36430424	-12.147309	3.154469	11.624719	0.860892	-3.994066	1.515085	39.979423573	116.338895140	47.217004
41808	36430449	-12.300805	3.244873	11.364297	0.849508	-3.940528	1.556805	39.979423560	116.338895154	47.219935
41809	36430474	-12.409285	3.344465	11.238083	0.834810	-3.883144	1.596476	39.979423547	116.338895169	47.209413
41810	36430499	-12.546607	3.489682	11.040213	0.810006	-3.821825	1.632291	39.979423534	116.338895185	47.212360
41811	36430524	-12.836804	3.569999	10.933936	0.790779	-3.757378	1.667801	39.979423522	116.338895201	47.215314
41812	36430549	-13.088870	3.622521	10.880713	0.748724	-3.699772	1.707807	39.979423511	116.338895218	47.218274
41813	36430574	-13.439545	3.713981	10.714474	0.708938	-3.640902	1.757127	39.979423500	116.338895236	47.221230
41814	36430599	-13.664828	3.630155	10.365648	0.667845	-3.587076	1.801934	39.979423490	116.338895254	47.224195
41815	36430624	-13.844519	3.498241	9.950015	0.639969	-3.526876	1.844037	39.979423481	116.338895273	47.227158
41816	36430649	-14.056077	3.342483	9.646153	0.589506	-3.467966	1.890535	39.979423472	116.338895293	47.230116
41817	36430674	-14.209130	3.055977	8.999906	0.550713	-3.411136	1.925813	39.979423464	116.338895313	47.231630
41818	36430699	-14.348912	2.750997	8.494660	0.517835	-3.347959	1.958989	39.979423456	116.338895334	47.234563
41819	36430724	-14.471027	2.373107	7.965145	0.481701	-3.279273	1.980342	39.979423449	116.338895356	47.237478
41820	36430749	-14.632731	1.930722	7.383575	0.458904	-3.213756	1.990755	39.979423443	116.338895378	47.240368
41821	36430774	-14.837472	1.518635	6.834011	0.433478	-3.130863	2.011934	39.979423438	116.338895401	47.243205
41822	36430799	-15.052877	1.183605	6.260832	0.404733	-3.053372	2.031865	39.979423433	116.338895425	47.246032
41823	36430824	-15.260183	0.894077	5.671651	0.363749	-2.972423	2.053161	39.979423429	116.338895450	47.248821
41824	36430849	-15.662285	0.519478	5.019647	0.327564	-2.879197	2.070911	39.979423426	116.338895475	47.251565
41825	36430874	-15.848182	0.266878	4.154154	0.304493	-2.777333	2.059670	39.979423423	116.338895500	47.266641
41826	36430899	-15.952907	-0.114756	3.540951	0.288462	-2.674032	2.048032	39.979423422	116.338895527	47.269281
41827	36430924	-16.175706	-0.588281	2.812885	0.274212	-2.568103	2.029907	39.979423421	116.338895554	47.271859
41828	36430949	-16.441737	-1.128207	2.220366	0.287273	-2.478357	2.008515	39.979423421	116.338895581	47.274369
41829	36430974	-16.474571	-1.765134	1.059532	0.282789	-2.350263	1.977769	39.979423421	116.338895609	47.276772
41830	36430999	-16.241081	-2.388915	0.758425	0.323471	-2.206085	1.929013	39.979423423	116.338895638	47.279127
41831	36431024	-16.254900	-2.759168	0.757083	0.354359	-2.082457	1.898156	39.979423425	116.338895667	47.281400
41832	36431049	-16.461053	-3.245556	0.159219	0.364915	-1.938562	1.871583	39.979423429	116.338895697	47.283586
41833	36431074	-16.716554	-3.626650	0.137902	0.401921	-1.788871	1.829532	39.979423433	116.338895727	47.283219
41834	36431099	-17.075068	-3.886242	0.010524	0.417679	-1.647071	1.799343	39.979423438	116.338895757	47.285225
41835	36431124	-17.325885	-4.227081	-0.087767	0.432370	-1.532274	1.760842	39.979423444	116.338895788	47.287137
41836	36431149	-17.397505	-4.554815	-0.420179	0.431093	-1.404070	1.708477	39.979423450	116.338895820	47.288954
41838	36431174	-17.427145	-4.807306	-0.230684	0.433621	-1.279192	1.649684	39.979423458	116.338895851	47.290665
41840	36431199	-17.526359	-5.057433	-0.372709	0.416141	-1.159338	1.579639	39.979423467	116.338895883	47.292287
41841	36431224	-17.628685	-5.341993	-0.424280	0.382631	-1.031558	1.510395	39.979423476	116.338895916	47.293810
41842	36431249	-17.744764	-5.588374	-0.422419	0.335490	-0.915138	1.436914	39.979423487	116.338895948	47.295232
41843	36431274	-17.866076	-5.950924	-0.624578	0.277500	-0.800388	1.361656	39.979421025	116.338893199	47.223946
41844	36431299	-17.928163	-6.185889	-0.741146	0.221898	-0.694618	1.273449	39.979421017	116.338893206	47.225041
41845	36431324	-17.961468	-6.414080	-0.788467	0.164366	-0.584677	1.181402	39.979421009	116.338893214	47.226053
41846	36431349	-18.000334	-6.645396	-0.794591	0.096402	-0.474882	1.082997	39.979421002	116.338893222	47.226980
41847	36431374	-18.018434	-6.796625	-0.825684	0.031362	-0.364123	0.981607	39.979420997	116.338893230	47.227820
41848	36431399	-18.070880	-6.941098	-0.864779	-0.032388	-0.249027	0.875019	39.979420992	116.338893238	47.228578
41849	36431424	-18.113909	-7.093768	-0.846657	-0.095445	-0.142369	0.766556	39.979420989	116.338893247	47.229250
41850	36431449	-18.099139	-7.255066	-0.787298	-0.160584	-0.034761	0.653631	39.979420986	116.338893255	47.229837
41851	36431474	-18.063586	-7.335206	-0.719702	-0.219448	0.068136	0.531918	39.979420985	116.338893264	47.230608
41852	36431499	-18.037572	-7.292913	-0.623712	-0.269476	0.170265	0.417800	39.979420985	116.338893273	47.231024
41853	36431524	-18.033723	-7.209608	-0.453247	-0.314572	0.278278	0.299889	39.979420986	116.338893282	47.231355
41854	36431549	-18.010593	-7.096057	-0.271918	-0.361568	0.383131	0.182217	39.979420987	116.338893292	47.231604
41855	36431574	-18.002480	-6.920433	-0.115679	-0.391404	0.481987	0.066565	39.979420990	116.338893302	47.231777
41856	36431599	-17.961153	-6.665114	0.050188	-0.414686	0.573500	-0.052902	39.979420994	116.338893311	47.231864
41857	36431624	-17.850753	-6.298240	0.205744	-0.422461	0.668362	-0.167495	39.979420999	116.338893321	47.231872
41858	36431649	-17.717113	-5.923473	0.454532	-0.433661	0.758890	-0.277273	39.979421005	116.338893332	47.231805
41859	36431674	-17.521534	-5.522613	0.728604	-0.437990	0.847879	-0.387627	39.979421012	116.338893342	47.235027
41860	36431699	-17.325792	-5.018706	1.024373	-0.429402	0.935786	-0.493296	39.979421020	116.338893353	47.234815
41861	36431724	-17.113470	-4.495372	1.293637	-0.418955	1.026269	-0.592111	39.979421030	116.338893364	47.234536
41862	36431749	-16.884582	-3.918434	1.588373	-0.409198	1.115704	-0.685479	39.979421040	116.338893375	47.234191
41863	36431774	-16.674734	-3.261469	1.822149	-0.389490	1.200945	-0.763333	39.979421050	116.338893387	47.233800
41864	36431799	-16.407055	-2.617075	2.082512	-0.380720	1.275440	-0.845343	39.979421062	116.338893398	47.233335
41865	36431824	-16.139346	-1.934020	2.340317	-0.368186	1.343680	-0.922928	39.979421075	116.338893411	47.232815
41866	36431849	-15.775267	-1.253998	2.650030	-0.352150	1.410307	-0.994831	39.979421089	116.338893423	47.232242
41867	36431874	-15.367273	-0.625147	3.010223	-0.338182	1.472994	-1.055954	39.979421103	116.338893437	47.234792
41868	36431899	-14.966402	-0.055446	3.410136	-0.319800	1.528271	-1.121252	39.979421118	116.338893450	47.234126
41869	36431924	-14.575161	0.618504	3.872867	-0.297290	1.585439	-1.182377	39.979421134	116.338893464	47.233419
41870	36431949	-8.510232	9.557857	2.843197	-0.227320	1.571512	-1.054719	39.979421151	116.338893479	47.232678
41871	36431974	10.324655	20.619011	-19.214231	-2.013762	2.029236	-0.001231	39.979421163	116.338893496	47.231707
41872	36431999	26.096811	9.877124	2.705222	-3.278974	2.266114	-0.155488	39.979421178	116.338893512	47.230796
41873	36432024	13.769118	14.555683	15.509712	-2.135495	2.077172	-0.913838	39.979421191	116.338893529	47.229897
41874	36432049	5.008052	19.892629	14.297934	-1.880376	2.662892	-1.122571	39.979421204	116.338893545	47.229054
41875	36432074	5.520160	22.230821	15.286289	-3.506727	3.003838	-0.926655	39.979421217	116.338893565	47.210150
41876	36432099	9.057814	18.419512	0.967689	-4.859052	3.144897	-0.972198	39.979421228	116.338893584	47.209382
41877	36432124	10.384507	16.977509	-16.522823	-3.690219	4.038932	-1.197053	39.979421238	116.338893603	47.208527
41878	36432149	15.542951	13.194946	-9.078774	-2.653384	4.282795	-1.315074	39.979421247	116.338893623	47.207550
41879	36432174	13.215310	10.141911	-15.971368	-1.451521	4.207318	-0.964657	39.979421254	116.338893642	47.206286
41880	36432199	9.875198	2.852334	-13.572672	-1.174187	4.884134	-0.564892	39.979421261	116.338893663	47.205035
41881	36432224	8.810856	-0.916832	-7.344617	-1.081319	5.480218	-0.155224	39.979421268	116.338893684	47.203656
41882	36432249	7.246728	-7.667173	-4.636294	-0.935364	5.981130	0.003664	39.979421274	116.338893704	47.202169
41883	36432274	3.671587	-11.832422	-2.737726	-0.788737	6.270838	-0.250928	39.979421282	116.338893722	47.190853
41884	36432299	-1.768754	-11.509910	2.466887	-0.879727	6.377924	-0.619821	39.979421288	116.338893740	47.189189
41885	36432324	-8.373402	-9.801518	10.839665	-1.079267	6.253413	-0.860159	39.979421295	116.338893758	47.187496
41886	36432349	-14.631117	-8.974438	20.493134	-1.199778	6.035210	-0.981518	39.979421303	116.338893776	47.185837
41887	36432374	-18.840038	-8.647423	29.367090	-1.128757	5.809686	-0.963596	39.979421313	116.338893793	47.184584
41888	36432399	-21.079336	-9.611656	37.298028	-1.004405	5.526098	-0.848139	39.979421323	116.338893810	47.183173
41889	36432424	-21.371587	-10.177741	41.250519	-0.787306	5.145533	-0.745725	39.979421334	116.338893826	47.181952
41890	36432449	-20.520832	-10.942765	42.390270	-0.676125	4.786815	-0.664808	39.979421346	116.338893841	47.180936
41891	36432474	-20.955818	-11.095785	42.597857	-0.601870	4.437420	-0.634578	39.979421359	116.338893855	47.177898
41892	36432499	-21.653098	-9.793339	40.234177	-0.612454	4.020728	-0.608574	39.979421373	116.338893869	47.177297
41893	36432524	-19.976466	-8.599663	34.417172	-0.645495	3.560095	-0.599550	39.979421389	116.338893882	47.176878
41894	36432549	-14.768019	-7.679787	28.254672	-0.606001	3.107668	-0.602187	39.979421405	116.338893895	47.176603
41895	36432574	-10.222400	-5.753632	21.023338	-0.470553	2.783172	-0.612902	39.979421420	116.338893907	47.176216
41896	36432599	-6.703490	-1.956703	16.632405	-0.385316	2.668359	-0.577935	39.979421438	116.338893919	47.176099
41897	36432624	-4.498252	1.406056	13.857588	-0.346275	2.597884	-0.495211	39.979421455	116.338893930	47.176021
41898	36432649	-4.167078	3.163646	11.773238	-0.262572	2.606076	-0.381830	39.979421472	116.338893942	47.175967
41899	36432674	-3.962025	4.775019	11.441566	-0.108493	2.662536	-0.288682	39.979421489	116.338893954	47.174094
41900	36432699	-3.431650	5.517952	11.831921	-0.002360	2.674908	-0.192479	39.979421506	116.338893966	47.174077
41901	36432724	-3.243582	5.608911	11.769719	0.066197	2.648639	-0.136841	39.979421523	116.338893979	47.174081
41902	36432749	-2.885249	4.924854	12.447523	0.124362	2.627931	-0.127593	39.979421540	116.338893991	47.174105
41903	36432774	-2.978207	4.468114	13.078352	0.056328	2.607589	-0.107439	39.979421557	116.338894003	47.174163
41904	36432799	-3.541444	2.797936	14.040757	-0.012267	2.580579	-0.095274	39.979421573	116.338894016	47.174239
41905	36432824	-3.624780	1.397623	13.884157	-0.056343	2.527165	-0.118758	39.979421590	116.338894028	47.174345
41906	36432849	-3.487799	0.243524	13.694322	-0.067507	2.478961	-0.127442	39.979421606	116.338894041	47.174478
41907	36432874	-4.328108	0.234893	14.915442	-0.154037	2.445192	-0.140158	39.979421623	116.338894052	47.159486
41908	36432899	-5.421024	-0.184872	15.408116	-0.183529	2.361859	-0.163518	39.979421640	116.338894064	47.159682
41909	36432924	-5.763589	-0.251719	14.550572	-0.137182	2.278511	-0.195851	39.979421656	116.338894076	47.159916
41910	36432949	-5.299653	0.257803	14.052149	-0.099577	2.199799	-0.203657	39.979421673	116.338894088	47.160183
41911	36432974	-5.128299	1.114963	13.736168	-0.107511	2.122323	-0.196479	39.979421690	116.338894100	47.160466
41912	36432999	-5.283081	1.650478	13.735064	-0.127258	2.077060	-0.167705	39.979421707	116.338894111	47.160795
41913	36433024	-5.124473	2.050259	13.176356	-0.101519	2.015849	-0.148566	39.979421724	116.338894123	47.161154
41914	36433049	-4.972526	2.580188	12.421366	-0.094304	1.971728	-0.142057	39.979421741	116.338894134	47.161538
41915	36433074	-4.414341	4.535315	13.594493	-0.109467	1.893871	-0.079441	39.979421757	116.338894146	47.140154
41916	36433099	-6.964082	9.359741	19.971335	-0.530403	1.733668	0.151283	39.979421774	116.338894158	47.140615
41917	36433124	-12.198102	7.270603	24.843127	-0.830051	1.469764	0.294297	39.979421791	116.338894170	47.141173
41918	36433149	-13.933461	9.630322	24.045837	-0.953667	1.137119	0.117992	39.979421807	116.338894182	47.141849
41919	36433174	-13.992749	6.576251	24.490811	-1.085322	0.952195	0.324606	39.979421824	116.338894195	47.142703
41920	36433199	-11.416312	3.954727	21.191268	-1.112553	0.741184	0.365104	39.979421841	116.338894208	47.143601
41921	36433224	-8.521928	3.060873	15.650863	-1.084610	0.645691	0.237823	39.979421858	116.338894221	47.144569
41922	36433249	-7.064266	1.999794	14.874005	-1.096513	0.510769	0.069116	39.979421875	116.338894234	47.145585
41923	36433274	-5.864641	1.429888	13.054644	-1.032596	0.326537	-0.077750	39.979421892	116.338894247	47.131470
41924	36433299	-5.103303	-0.158052	11.921665	-0.869438	0.171447	-0.239182	39.979421909	116.338894260	47.132541
41925	36433324	-3.288139	-1.118414	11.789134	-0.725408	0.034285	-0.415030	39.979421926	116.338894273	47.133627
41926	36433349	-2.218879	-1.640213	12.562028	-0.538142	0.023729	-0.520624	39.979421943	116.338894285	47.134726
41927	36433374	-1.540565	-1.750659	12.897221	-0.456755	0.118206	-0.524168	39.979421960	116.338894297	47.135834
41928	36433399	-1.643905	-1.971741	12.792721	-0.429454	0.187029	-0.461613	39.979421976	116.338894309	47.136962
41929	36433424	-2.781116	-1.863116	12.516954	-0.415376	0.208983	-0.407513	39.979421993	116.338894320	47.138105
41930	36433449	-2.936797	-0.874925	11.406855	-0.292374	0.175235	-0.314574	39.979422010	116.338894332	47.139260
41931	36433474	-3.113709	-0.307707	11.388645	-0.321561	0.104062	-0.169566	39.979422027	116.338894343	47.136109
41932	36433499	-3.064860	-0.126781	11.180333	-0.364870	0.077714	0.000322	39.979422044	116.338894354	47.137284
41933	36433524	-2.442078	0.092627	11.366279	-0.389005	0.098851	0.096786	39.979422060	116.338894365	47.138469
41934	36433549	-2.291910	1.376494	11.036773	-0.352208	0.109448	0.057442	39.979422077	116.338894375	47.139662
41935	36433574	-2.463975	1.896564	10.717904	-0.339289	0.105004	0.013894	39.979422094	116.338894386	47.140859
41936	36433599	-2.432396	1.029158	10.834823	-0.327615	0.086693	-0.010699	39.979422110	116.338894396	47.142068
41937	36433624	-2.408954	0.163298	10.873160	-0.268656	0.059062	-0.048535	39.979422126	116.338894407	47.143283
41940	36433649	-2.221465	0.118101	10.811884	-0.215469	0.041418	-0.084595	39.979422143	116.338894417	47.144505
41941	36433674	-1.863355	0.147281	10.334640	-0.184391	0.043014	-0.094055	39.979419432	116.338893963	47.116199
41942	36433699	-1.708046	-0.184247	10.305723	-0.159103	0.048842	-0.079808	39.979419420	116.338893971	47.117642
41943	36433724	-1.816504	-0.061413	10.223570	-0.113587	0.055321	-0.070488	39.979419408	116.338893979	47.119082
41944	36433749	-1.818915	0.191729	10.227055	-0.096826	0.065134	-0.040762	39.979419396	116.338893987	47.120521
41945	36433774	-1.855427	0.446846	10.097524	-0.087975	0.074115	-0.031982	39.979419384	116.338893995	47.121956
41946	36433799	-2.114502	0.776526	10.288695	-0.060011	0.079571	-0.036106	39.979419371	116.338894002	47.123391
41947	36433824	-2.435721	0.831304	10.367177	-0.047158	0.077339	-0.035015	39.979419359	116.338894010	47.124825
41948	36433849	-2.637326	0.910340	10.578838	-0.028181	0.064963	-0.035618	39.979419346	116.338894017	47.126262
41949	36433874	-2.705289	0.740746	10.666044	-0.031582	0.043505	-0.024343	39.979419333	116.338894025	47.128408
41950	36433899	-2.461980	0.788763	10.408240	-0.026628	0.057025	-0.037661	39.979419319	116.338894032	47.129850
41951	36433924	-2.867967	0.275667	10.953054	0.049394	0.004403	-0.033656	39.979419306	116.338894039	47.131295
41952	36433949	-2.349869	0.507387	10.555021	0.035284	0.007416	-0.029920	39.979419292	116.338894046	47.132744
41953	36433974	-1.932674	-0.093683	10.360420	0.054756	0.024918	-0.010878	39.979419278	116.338894052	47.134188
41954	36433999	-1.746235	0.340309	9.907019	0.084272	0.030203	-0.026695	39.979419264	116.338894059	47.135634
41955	36434024	-1.722157	0.345343	9.642332	0.128981	0.040852	-0.005281	39.979419250	116.338894065	47.137076
41956	36434049	-1.600106	0.200196	9.796220	0.133751	0.049157	0.019467	39.979419235	116.338894072	47.138512
41957	36434074	-1.535555	0.220438	9.890790	0.138432	0.060536	0.047030	39.979419221	116.338894078	47.126404
41958	36434099	-1.628963	0.480497	9.922194	0.135946	0.086120	0.064982	39.979419206	116.338894084	47.127829
41959	36434124	-1.738575	0.629851	9.747027	0.160183	0.104587	0.063266	39.979419191	116.338894090	47.129250
41960	36434149	-1.970881	0.833844	9.661126	0.175102	0.107516	0.050829	39.979419175	116.338894096	47.130665
41961	36434174	-2.020038	1.046048	9.593947	0.175975	0.097285	0.044131	39.979419160	116.338894101	47.132076
41962	36434199	-1.931666	1.003768	9.492743	0.168420	0.085492	0.049479	39.979419144	116.338894107	47.133483
41963	36434224	-1.764859	0.959826	9.452796	0.161943	0.084826	0.054203	39.979419128	116.338894113	47.134883
41964	36434249	-1.538869	0.909079	9.404858	0.169878	0.094043	0.052890	39.979419112	116.338894118	47.136277
41965	36434274	-1.487179	0.803560	9.622693	0.163867	0.123477	0.065365	39.979419095	116.338894123	47.135590
41966	36434299	-1.527304	0.744371	9.650409	0.153141	0.150342	0.071400	39.979419079	116.338894129	47.136970
41967	36434324	-1.649574	0.709280	9.470638	0.160564	0.170144	0.076829	39.979419062	116.338894134	47.138344
41968	36434349	-1.614572	0.726514	9.275183	0.169091	0.182496	0.070742	39.979419045	116.338894139	47.139710
41969	36434374	-1.691699	0.710103	9.248486	0.172105	0.183226	0.069444	39.979419027	116.338894144	47.141067
41970	36434399	-1.736062	0.702820	9.352175	0.164481	0.184581	0.082554	39.979419010	116.338894148	47.142418
41971	36434424	-1.748609	0.839985	9.488343	0.159858	0.188340	0.095680	39.979418992	116.338894153	47.143764
41972	36434449	-1.726401	0.860775	9.432539	0.147001	0.196421	0.097461	39.979418974	116.338894158	47.145103
41973	36434474	-1.600476	0.915115	9.258523	0.142264	0.212713	0.103182	39.979418956	116.338894162	47.131032
41974	36434499	-1.605734	0.812528	9.095889	0.141476	0.216712	0.088121	39.979418938	116.338894167	47.132353
41975	36434524	-1.648197	0.816982	9.002772	0.143538	0.219993	0.092021	39.979418919	116.338894171	47.133665
41976	36434549	-1.687150	0.780709	9.134326	0.128083	0.213510	0.092840	39.979418901	116.338894175	47.134968
41977	36434574	-1.705195	0.816276	9.198283	0.124045	0.212562	0.092559	39.979418882	116.338894179	47.136265
41978	36434599	-1.892769	1.067339	9.407876	0.126357	0.206946	0.082038	39.979418863	116.338894183	47.137553
41979	36434624	-2.091967	1.395229	9.331679	0.105762	0.200978	0.083564	39.979418843	116.338894187	47.138835
41980	36434649	-1.884403	1.561216	9.103536	0.072655	0.201048	0.080745	39.979418824	116.338894191	47.140110
41981	36434674	-1.706729	1.264452	8.966952	0.074211	0.185496	0.064908	39.979418804	116.338894195	47.139194
41982	36434699	-1.726824	0.858098	9.056061	0.083779	0.182654	0.038391	39.979418784	116.338894198	47.140452
41983	36434724	-1.668376	0.718140	9.301738	0.085412	0.181423	0.032263	39.979418764	116.338894202	47.141702
41984	36434749	-1.736452	0.785998	9.563984	0.081152	0.174075	0.035179	39.979418743	116.338894205	47.142945
41985	36434774	-1.892156	0.997596	9.661697	0.072753	0.176582	0.041440	39.979418723	116.338894209	47.144189
41986	36434799	-1.931319	1.373704	9.561812	0.065672	0.185792	0.031216	39.979418702	116.338894212	47.145421
41987	36434824	-1.900473	1.495341	9.427886	0.051849	0.180450	0.020388	39.979418681	116.338894215	47.146648
41988	36434849	-1.929357	1.518730	9.419976	0.049408	0.176755	0.002311	39.979418660	116.338894218	47.147869
41989	36434874	-1.886688	1.463763	9.402511	0.033338	0.172533	-0.017874	39.979418638	116.338894222	47.148622
41990	36434899	-1.874622	1.378098	9.492693	0.025344	0.175928	-0.027971	39.979418616	116.338894225	47.149831
41991	36434924	-2.018904	1.291460	9.848840	0.026667	0.162061	-0.044891	39.979418594	116.338894228	47.151035
41992	36434949	-2.326776	1.270135	10.037468	0.028539	0.149137	-0.060937	39.979418572	116.338894231	47.152237
41993	36434974	-2.260430	1.295095	9.983053	0.021259	0.149648	-0.073220	39.979418550	116.338894233	47.153443
41994	36434999	-2.167758	1.224310	9.781987	0.016704	0.144601	-0.073060	39.979418527	116.338894236	47.154641
41995	36435024	-2.083215	1.230354	9.623784	0.016366	0.139189	-0.091429	39.979418504	116.338894239	47.155834
41996	36435049	-1.985055	1.192485	9.453427	0.012991	0.131811	-0.098407	39.979418481	116.338894241	47.157022
41997	36435074	-1.981126	1.198933	9.559887	0.011553	0.133069	-0.095159	39.979418458	116.338894244	47.161332
41998	36435099	-2.002064	1.136817	9.610208	0.003512	0.133097	-0.102058	39.979418435	116.338894246	47.162511
41999	36435124	-2.021773	1.008487	9.708209	0.007372	0.132744	-0.103849	39.979418411	116.338894248	47.163684
42000	36435149	-2.034505	0.861058	9.750283	0.012404	0.135165	-0.109832	39.979418387	116.338894251	47.164854
42001	36435174	-2.059470	0.716654	9.729826	0.015277	0.140721	-0.110130	39.979418363	116.338894253	47.166021
42002	36435199	-2.088488	0.649255	9.721612	0.022846	0.143969	-0.099853	39.979418339	116.338894255	47.167182
42003	36435224	-2.110524	0.616321	9.692219	0.034831	0.149018	-0.095496	39.979418314	116.338894257	47.168339
42004	36435249	-2.122787	0.933641	9.838279	0.032184	0.146814	-0.079712	39.979418289	116.338894258	47.169493
42005	36435274	-2.273413	0.989472	10.021936	0.012513	0.145915	-0.065951	39.979418264	116.338894260	47.157339
42006	36435299	-2.194803	0.874185	9.925810	0.028884	0.152390	-0.063378	39.979418239	116.338894262	47.158485
42007	36435324	-2.069219	0.834577	9.843286	0.027978	0.162965	-0.050782	39.979418214	116.338894263	47.159627
42008	36435349	-2.037172	0.777423	9.663535	0.030398	0.166175	-0.055343	39.979418188	116.338894264	47.160766
42009	36435374	-1.948695	0.743522	9.530446	0.038207	0.177483	-0.051713	39.979418163	116.338894266	47.161894
42010	36435399	-1.907368	0.725606	9.533082	0.050108	0.176664	-0.046849	39.979418137	116.338894267	47.163022
42011	36435424	-1.934820	0.802712	9.522667	0.051351	0.177251	-0.041509	39.979418110	116.338894268	47.164144
42012	36435449	-1.887916	0.860438	9.542846	0.052877	0.188518	-0.041252	39.979418084	116.338894269	47.165260
42013	36435474	-1.891814	0.904717	9.480467	0.053217	0.200543	-0.036743	39.979418057	116.338894269	47.159322
42014	36435499	-1.899944	0.940676	9.430029	0.053963	0.208582	-0.036433	39.979418030	116.338894270	47.160425
42015	36435524	-1.927577	0.926797	9.465893	0.053829	0.218578	-0.040080	39.979418003	116.338894271	47.161521
42016	36435549	-2.042201	0.938789	9.572287	0.059143	0.219785	-0.047006	39.979417976	116.338894271	47.162612
42017	36435574	-2.194186	1.024716	9.781332	0.054371	0.215769	-0.045040	39.979417949	116.338894272	47.163703
42018	36435599	-2.322348	1.129172	9.829485	0.045718	0.214042	-0.046617	39.979417921	116.338894272	47.164786
42019	36435624	-2.219796	1.180802	9.628837	0.043488	0.213742	-0.053902	39.979417893	116.338894272	47.165866
42020	36435649	-2.107908	1.194918	9.537169	0.031309	0.214547	-0.060330	39.979417865	116.338894272	47.166941
42021	36435674	-2.133623	1.243703	9.372389	0.031123	0.210221	-0.081654	39.979417837	116.338894272	47.166703
42022	36435699	-2.208714	1.014752	9.511236	0.006139	0.209780	-0.071445	39.979417808	116.338894272	47.167767
42023	36435724	-2.146488	1.115222	9.498325	0.008351	0.201277	-0.081073	39.979417779	116.338894272	47.168825
42024	36435749	-2.138251	1.131684	9.514345	0.001666	0.204034	-0.087588	39.979417751	116.338894272	47.169879
42025	36435774	-2.112278	1.112138	9.586128	-0.009596	0.202887	-0.096893	39.979417721	116.338894272	47.170928
42026	36435799	-2.150596	1.173030	9.497170	-0.023218	0.208613	-0.099768	39.979417692	116.338894271	47.171972
42027	36435824	-2.154551	1.258397	9.494800	-0.030854	0.210588	-0.107545	39.979417662	116.338894271	47.173010
42028	36435849	-2.141815	1.324824	9.392602	-0.040551	0.214219	-0.114708	39.979417633	116.338894270	47.174043
42029	36435874	-2.039697	1.314011	9.338072	-0.045153	0.212792	-0.121762	39.979417602	116.338894270	47.154868
42030	36435899	-1.875977	1.126847	9.325571	-0.057678	0.214988	-0.136280	39.979417572	116.338894269	47.155883
42031	36435924	-1.971394	1.105837	9.443853	-0.055593	0.220993	-0.148253	39.979417542	116.338894268	47.156892
42032	36435949	-2.244734	1.120205	9.648597	-0.062729	0.227022	-0.150771	39.979417511	116.338894267	47.157895
42033	36435974	-2.296008	1.070375	9.729529	-0.072406	0.224699	-0.154236	39.979417480	116.338894266	47.158901
42034	36435999	-2.142959	0.858997	9.570617	-0.069900	0.228432	-0.162366	39.979417449	116.338894265	47.159896
42035	36436024	-2.112419	0.829047	9.477437	-0.078075	0.229445	-0.166820	39.979417418	116.338894264	47.160886
42036	36436049	-2.200676	0.877081	9.524090	-0.079428	0.228791	-0.163950	39.979417386	116.338894263	47.161870
42037	36436074	-2.093354	0.727090	9.506363	-0.077336	0.231899	-0.171706	39.979417355	116.338894261	47.163639
42038	36436099	-1.986971	0.720615	9.395995	-0.085774	0.239125	-0.179677	39.979417323	116.338894260	47.164612
42039	36436124	-1.967552	0.793634	9.374967	-0.084014	0.246233	-0.182241	39.979417290	116.338894258	47.165579
42040	36436149	-2.110686	0.920205	9.391294	-0.092766	0.256033	-0.186776	39.979417258	116.338894256	47.166539
42043	36436174	-2.141174	0.940595	9.465807	-0.101241	0.258888	-0.194812	39.979417453	116.338894614	47.158185
42044	36436199	-2.098307	0.921654	9.371316	-0.105026	0.262488	-0.199607	39.979417422	116.338894618	47.159005
42045	36436224	-1.911702	0.855135	9.117132	-0.105338	0.279579	-0.199239	39.979417392	116.338894622	47.159817
42046	36436249	-1.950603	0.792858	9.219352	-0.104606	0.290757	-0.196362	39.979417361	116.338894626	47.160623
42047	36436274	-1.974295	0.781440	9.319061	-0.116424	0.292845	-0.197336	39.979417329	116.338894630	47.163097
42048	36436299	-2.102574	0.786855	9.357593	-0.120573	0.304885	-0.199895	39.979417298	116.338894634	47.163890
42049	36436324	-2.280017	1.088123	9.403645	-0.109561	0.314577	-0.205527	39.979417266	116.338894638	47.164677
42050	36436349	-1.993470	0.831091	9.287293	-0.117315	0.328980	-0.200319	39.979417234	116.338894642	47.165459
42051	36436374	-2.144702	0.464332	9.500165	-0.126010	0.329760	-0.186978	39.979417202	116.338894646	47.166236
42052	36436399	-2.270946	0.694495	9.398396	-0.118198	0.336579	-0.178960	39.979417170	116.338894649	47.167007
42053	36436424	-2.211660	0.752197	9.433234	-0.122952	0.350685	-0.159754	39.979417137	116.338894653	47.167773
42054	36436449	-2.533313	0.726755	9.624514	-0.114752	0.356111	-0.154820	39.979417105	116.338894656	47.168534
42055	36436474	-2.419751	0.768721	9.435764	-0.118740	0.368184	-0.144067	39.979417072	116.338894660	47.163836
42056	36436499	-2.044209	0.795808	9.162067	-0.126366	0.379120	-0.130318	39.979417039	116.338894663	47.164587
42057	36436524	-1.802392	0.912153	8.959067	-0.130242	0.394438	-0.114924	39.979417006	116.338894666	47.165330
42058	36436549	-1.918558	0.853776	9.119818	-0.138278	0.411446	-0.103655	39.979416972	116.338894670	47.166065
42059	36436574	-2.190876	0.808663	9.417459	-0.142866	0.426756	-0.095065	39.979416938	116.338894673	47.166796
42060	36436599	-2.060116	0.796094	9.460015	-0.148521	0.435172	-0.088020	39.979416904	116.338894676	47.167519
42061	36436624	-1.866106	0.492037	9.444508	-0.106844	0.462441	-0.092728	39.979416870	116.338894679	47.168235
42062	36436649	-1.996157	0.587488	9.657613	-0.103389	0.469595	-0.091957	39.979416836	116.338894682	47.168945
42063	36436674	-2.061876	0.564803	9.484536	-0.104465	0.494072	-0.071792	39.979416801	116.338894685	47.159272
42064	36436699	-1.934883	0.371456	9.292453	-0.089505	0.506418	-0.058074	39.979416767	116.338894688	47.159969
42065	36436724	-2.231822	0.569641	9.684052	-0.052540	0.530763	-0.062960	39.979416732	116.338894690	47.160660
42066	36436749	-2.613373	0.433293	10.094441	-0.019628	0.534958	-0.061972	39.979416697	116.338894693	47.161350
42067	36436774	-2.728855	0.458491	9.958696	-0.021312	0.520119	-0.035818	39.979416661	116.338894695	47.162049
42068	36436799	-2.252063	0.401501	9.368114	-0.029367	0.517207	-0.013849	39.979416626	116.338894698	47.162734
42069	36436824	-1.972911	1.030847	8.896854	-0.004813	0.536703	-0.027891	39.979416590	116.338894700	47.163411
42070	36436849	-1.977541	0.843939	9.542707	-0.032473	0.580612	-0.018300	39.979416554	116.338894702	47.164082
42071	36436874	-1.963608	0.477638	9.243555	0.077210	0.618430	-0.037351	39.979416518	116.338894704	47.167830
42072	36436899	-2.098393	0.979125	9.476633	0.059667	0.639272	-0.044972	39.979416481	116.338894707	47.168487
42073	36436924	-2.419009	0.846906	9.142066	0.062335	0.645360	-0.049989	39.979416445	116.338894709	47.169138
42074	36436949	-2.141970	0.918165	9.206297	0.077859	0.664406	-0.057517	39.979416408	116.338894711	47.169783
42075	36436974	-1.946570	0.873790	9.288720	0.072086	0.690842	-0.051053	39.979416371	116.338894712	47.170417
42076	36436999	-1.675105	0.305048	8.966379	0.055681	0.724286	-0.046174	39.979416334	116.338894714	47.171045
42077	36437024	-2.304490	0.843755	9.661082	0.146206	0.745987	-0.049105	39.979416296	116.338894716	47.171666
42078	36437049	-2.678526	1.013721	9.421759	0.121927	0.792799	-0.053282	39.979416258	116.338894718	47.172282
42079	36437074	-2.508723	0.896347	9.205966	0.147423	0.816603	-0.058441	39.979416220	116.338894719	47.161118
42080	36437099	-1.889994	0.886923	8.707441	0.159502	0.835805	-0.069104	39.979416182	116.338894721	47.161718
42081	36437124	-1.909853	0.838007	8.932234	0.171679	0.861129	-0.078824	39.979416144	116.338894722	47.162309
42082	36437149	-2.393687	0.787653	9.533100	0.189117	0.895261	-0.089838	39.979416105	116.338894724	47.162892
42083	36437174	-2.437920	1.067887	9.664187	0.202636	0.922436	-0.094451	39.979416067	116.338894725	47.163482
42084	36437199	-2.311694	0.904434	9.224765	0.212795	0.957932	-0.097097	39.979416028	116.338894726	47.164055
42085	36437224	-2.145501	0.827231	8.886725	0.230943	0.990138	-0.107262	39.979415989	116.338894727	47.164620
42086	36437249	-2.098484	0.912460	8.881776	0.232486	1.014321	-0.102049	39.979415949	116.338894728	47.165176
42087	36437274	-2.235836	0.931638	9.296784	0.220050	1.037065	-0.100869	39.979415909	116.338894729	47.157567
42088	36437299	-2.248043	1.107757	9.290683	0.230551	1.074246	-0.097038	39.979415870	116.338894730	47.158106
42089	36437324	-2.112823	1.112336	9.189641	0.225487	1.116005	-0.101253	39.979415830	116.338894731	47.158637
42090	36437349	-2.025752	0.821490	8.934743	0.234899	1.159339	-0.104098	39.979415789	116.338894732	47.159158
42091	36437374	-2.261362	0.942296	9.024151	0.240193	1.209659	-0.105050	39.979415749	116.338894733	47.159668
42092	36437399	-2.488207	0.803748	9.276246	0.248420	1.249514	-0.103524	39.979415708	116.338894734	47.160173
42093	36437424	-2.754392	0.835120	9.369458	0.250249	1.287693	-0.104184	39.979415667	116.338894734	47.160673
42094	36437449	-3.016280	0.969800	9.433527	0.251547	1.321021	-0.095806	39.979415626	116.338894735	47.161168
42095	36437474	-3.042110	1.099423	9.358005	0.236705	1.358674	-0.103919	39.979415585	116.338894735	47.161586
42096	36437499	-2.777290	1.058508	9.256789	0.247623	1.388485	-0.114952	39.979415543	116.338894736	47.162072
42097	36437524	-2.359308	1.009537	9.077472	0.250018	1.425593	-0.129613	39.979415501	116.338894736	47.162551
42098	36437549	-2.176311	1.083214	9.237419	0.242995	1.482617	-0.129265	39.979415459	116.338894736	47.163022
42099	36437574	-2.120172	0.894688	9.244755	0.256178	1.543597	-0.140260	39.979415417	116.338894736	47.163480
42100	36437599	-2.072170	0.397295	9.764727	0.303135	1.601307	-0.159584	39.979415374	116.338894736	47.163934
42101	36437624	-2.691415	0.203433	10.128208	0.439000	1.669341	-0.200293	39.979415331	116.338894736	47.164384
42102	36437649	-2.484295	0.785057	9.880253	0.393553	1.720320	-0.193030	39.979415288	116.338894736	47.164831
42103	36437674	-2.411355	0.652950	9.121474	0.399974	1.768086	-0.188226	39.979415245	116.338894736	47.161979
42104	36437699	-3.086753	1.312587	9.077026	0.448379	1.836768	-0.210215	39.979415202	116.338894736	47.162411
42105	36437724	-3.771819	1.495933	9.363053	0.441698	1.909118	-0.229733	39.979415158	116.338894735	47.162840
42106	36437749	-3.809908	1.373844	9.629750	0.471119	1.942494	-0.256765	39.979415114	116.338894735	47.163266
42107	36437774	-3.204690	1.253493	9.390086	0.494956	1.966687	-0.299140	39.979415070	116.338894734	47.163694
42108	36437799	-2.672445	1.061391	9.214297	0.518022	2.009277	-0.329768	39.979415026	116.338894734	47.164112
42109	36437824	-2.552570	1.176786	9.272167	0.548320	2.091837	-0.351216	39.979414981	116.338894733	47.164523
42110	36437849	-3.207552	0.805755	9.912001	0.613690	2.218869	-0.378599	39.979414936	116.338894732	47.164928
42111	36437874	-3.588938	0.869701	10.870643	0.738977	2.314703	-0.415920	39.979414891	116.338894731	47.156047
42112	36437899	-3.254091	1.348519	10.179609	0.785667	2.390261	-0.431333	39.979414846	116.338894730	47.156452
42113	36437924	-5.481767	1.307420	9.187387	0.774166	2.507840	-0.419017	39.979414800	116.338894729	47.156857
42114	36437949	-4.753489	2.142049	9.829727	0.691318	2.444732	-0.425627	39.979414754	116.338894728	47.157267
42115	36437974	-0.071568	1.010750	8.258025	0.677958	2.369144	-0.478066	39.979414708	116.338894727	47.157631
42116	36437999	1.420980	1.128279	7.226756	0.662441	2.672390	-0.468087	39.979414662	116.338894726	47.157999
42117	36438024	1.385216	0.250111	9.536936	0.714578	3.054411	-0.537912	39.979414615	116.338894724	47.158337
