PacketCounter	SampleTimeFine	Acc_X	Acc_Y	Acc_Z	Gyr_X	Gyr_Y	Gyr_Z	VelInc_X	VelInc_Y	VelInc_Z
34147	28211274	-2.383653	0.709003	9.503821	0.003386	0.011843	0.006373	-0.005959	0.001772	0.023760
34148	28211299	-2.385004	0.709122	9.478537	0.002877	0.009942	0.010265	-0.005962	0.001773	0.023696
34149	28211324	-2.376824	0.662287	9.489027	0.001943	0.010426	0.012895	-0.005942	0.001656	0.023723
34150	28211349	-2.368478	0.696671	9.491820	0.007057	0.003758	0.012061	-0.005921	0.001741	0.023730
34151	28211374	-2.383555	0.766920	9.474742	0.004236	0.006656	0.006890	-0.005959	0.001917	0.023687
34152	28211399	-2.390295	0.805544	9.454921	0.005506	0.009012	0.011729	-0.005975	0.002014	0.023637
34153	28211424	-2.393291	0.720040	9.495861	0.010423	0.010717	0.011830	-0.005983	0.001800	0.023740
34154	28211449	-2.379596	0.684221	9.511721	0.003965	0.006938	0.012536	-0.005949	0.001710	0.023779
34155	28211474	-2.375579	0.686790	9.559607	0.010207	0.007106	0.015725	-0.005939	0.001717	0.023899
34156	28211499	-2.314694	0.729733	9.486632	0.004864	0.011282	0.014929	-0.005786	0.001824	0.023717
34157	28211524	-2.373810	0.727144	9.436058	0.008398	0.015974	0.015704	-0.005934	0.001817	0.023590
34158	28211549	-2.456749	0.704850	9.515738	0.011031	0.010711	0.015788	-0.006142	0.001762	0.023789
34159	28211574	-2.448426	0.765356	9.529232	0.013804	0.007595	0.015122	-0.006121	0.001913	0.023823
34160	28211599	-2.462421	0.740289	9.607614	0.019379	0.005656	0.017112	-0.006156	0.001850	0.024019
34161	28211624	-2.480615	0.697331	9.688598	0.020464	0.005727	0.017560	-0.006201	0.001743	0.024222
34162	28211649	-2.340663	0.802804	9.441640	0.016634	0.007878	0.020863	-0.005851	0.002006	0.023604
34163	28211674	-2.333546	0.726318	9.300396	0.011985	0.009507	0.023460	-0.005834	0.001815	0.023251
34164	28211699	-2.389202	0.575810	9.434210	0.016278	0.002560	0.021236	-0.005973	0.001439	0.023586
34165	28211724	-2.382500	0.642766	9.554147	0.022893	0.002037	0.028634	-0.005956	0.001606	0.023885
34166	28211749	-2.332794	0.751412	9.573149	0.024959	0.002512	0.026460	-0.005832	0.001878	0.023933
34167	28211774	-2.331187	0.803937	9.502822	0.021774	0.006883	0.026180	-0.005828	0.002009	0.023757
34168	28211799	-2.406852	0.812370	9.465570	0.021526	0.010173	0.026360	-0.006017	0.002030	0.023664
34169	28211824	-2.464852	0.764116	9.487992	0.020126	0.007536	0.027916	-0.006162	0.001909	0.023720
34170	28211849	-2.481564	0.703485	9.519705	0.023125	0.002131	0.026812	-0.006204	0.001758	0.023799
34171	28211874	-2.387978	0.638710	9.538161	0.025262	-0.000598	0.026457	-0.005970	0.001596	0.023845
34172	28211899	-2.348024	0.616731	9.523481	0.030990	0.004099	0.031400	-0.005870	0.001541	0.023809
34173	28211924	-2.390749	0.677165	9.560896	0.034320	0.003965	0.027281	-0.005977	0.001692	0.023902
34174	28211949	-2.379549	0.719991	9.507835	0.030966	0.006600	0.033407	-0.005949	0.001799	0.023770
34175	28211974	-2.408468	0.682920	9.491748	0.036119	0.005332	0.025913	-0.006021	0.001706	0.023729
34176	28211999	-2.494236	0.619274	9.579270	0.040853	-0.000124	0.034049	-0.006236	0.001547	0.023948
34177	28212024	-2.484556	0.664634	9.600704	0.042015	-0.003238	0.037389	-0.006212	0.001660	0.024002
34178	28212049	-2.289595	0.734304	9.366947	0.041260	0.001355	0.034817	-0.005724	0.001834	0.023417
34179	28212074	-2.329628	0.778133	9.414954	0.045152	0.000870	0.036605	-0.005824	0.001944	0.023538
34180	28212099	-2.424884	0.795710	9.504089	0.044645	0.002147	0.037472	-0.006062	0.001988	0.023760
34181	28212124	-2.274513	0.772613	9.421629	0.041893	0.002456	0.036138	-0.005686	0.001930	0.023554
34182	28212149	-2.292344	0.763118	9.380348	0.045705	0.005162	0.035538	-0.005731	0.001906	0.023451
34183	28212174	-2.393220	0.808037	9.524091	0.042550	0.012895	0.036006	-0.005983	0.002019	0.023810
34184	28212199	-2.364268	0.761397	9.486708	0.044200	0.010882	0.032943	-0.005910	0.001902	0.023717
34185	28212224	-2.360141	0.707755	9.466591	0.045601	0.011693	0.028309	-0.005900	0.001768	0.023667
34186	28212249	-2.351875	0.738004	9.477323	0.047438	0.009516	0.030899	-0.005879	0.001843	0.023693
34187	28212274	-2.361510	0.768223	9.493381	0.048372	0.010331	0.030465	-0.005904	0.001919	0.023734
34188	28212299	-2.384902	0.744957	9.461375	0.047070	0.012626	0.031456	-0.005962	0.001861	0.023654
34189	28212324	-2.357362	0.749029	9.481360	0.053567	0.014906	0.031821	-0.005893	0.001871	0.023704
34190	28212349	-2.334014	0.709048	9.487883	0.057952	0.013687	0.031105	-0.005835	0.001771	0.023720
34191	28212374	-2.360346	0.671830	9.514341	0.060478	0.012074	0.033636	-0.005901	0.001678	0.023786
34192	28212399	-2.364338	0.737909	9.503924	0.061677	0.013371	0.035527	-0.005911	0.001843	0.023760
34193	28212424	-2.366961	0.794417	9.482827	0.061928	0.014806	0.038105	-0.005917	0.001984	0.023707
34194	28212449	-2.370998	0.780854	9.438881	0.061478	0.014995	0.038099	-0.005927	0.001950	0.023597
34195	28212474	-2.391606	0.853674	9.456409	0.068453	0.014982	0.037903	-0.005979	0.002132	0.023641
34196	28212499	-2.438621	0.886395	9.541622	0.057492	0.011383	0.037754	-0.006096	0.002214	0.023854
34197	28212524	-2.407012	0.830001	9.538781	0.066140	0.013012	0.037193	-0.006017	0.002073	0.023847
34198	28212549	-2.347772	0.823077	9.538795	0.064728	0.017501	0.036491	-0.005869	0.002055	0.023847
34199	28212574	-2.382098	0.812272	9.486873	0.057714	0.020182	0.037500	-0.005955	0.002029	0.023717
34200	28212599	-2.386209	0.852128	9.506953	0.055265	0.016174	0.032146	-0.005965	0.002128	0.023768
34201	28212624	-2.397225	0.838470	9.486946	0.053096	0.014375	0.034267	-0.005993	0.002094	0.023718
34202	28212649	-2.380614	0.839904	9.465675	0.056793	0.016448	0.033604	-0.005951	0.002098	0.023664
34203	28212674	-2.315902	0.830198	9.478988	0.048438	0.012964	0.028519	-0.005789	0.002074	0.023698
34204	28212699	-2.329677	0.800029	9.448289	0.051849	0.019419	0.032622	-0.005824	0.001998	0.023621
34205	28212724	-2.360093	0.820505	9.504198	0.049059	0.019801	0.032535	-0.005900	0.002050	0.023761
34206	28212749	-2.383529	0.810853	9.508140	0.050303	0.018437	0.034617	-0.005958	0.002025	0.023771
34207	28212774	-2.384815	0.826085	9.482920	0.051753	0.024068	0.030355	-0.005961	0.002063	0.023708
34208	28212799	-2.406835	0.868674	9.497682	0.048320	0.019120	0.033720	-0.006017	0.002170	0.023744
34209	28212824	-2.390293	0.853571	9.484335	0.047110	0.018202	0.031514	-0.005975	0.002132	0.023711
34210	28212849	-2.383355	0.860533	9.465756	0.044231	0.017442	0.027350	-0.005958	0.002150	0.023665
34211	28212874	-2.408172	0.864639	9.475056	0.042339	0.015369	0.024197	-0.006020	0.002160	0.023688
34212	28212899	-2.388919	0.839850	9.476317	0.040826	0.017214	0.028579	-0.005972	0.002098	0.023691
34213	28212924	-2.376495	0.837115	9.465677	0.038199	0.014351	0.027491	-0.005941	0.002091	0.023664
34214	28212949	-2.376413	0.873020	9.445836	0.035414	0.016399	0.024645	-0.005941	0.002181	0.023615
34215	28212974	-2.370926	0.850940	9.451088	0.039153	0.013046	0.025116	-0.005927	0.002126	0.023628
34216	28212999	-2.377806	0.866079	9.453798	0.038788	0.011638	0.024110	-0.005944	0.002164	0.023635
34217	28213024	-2.379256	0.878284	9.493734	0.036475	0.020093	0.022075	-0.005948	0.002194	0.023735
34218	28213049	-2.370975	0.857726	9.480372	0.032522	0.015472	0.017905	-0.005927	0.002143	0.023701
34219	28213074	-2.388910	0.843994	9.478983	0.033097	0.013316	0.021614	-0.005972	0.002109	0.023698
34220	28213099	-2.395777	0.839891	9.468334	0.032125	0.013083	0.019033	-0.005989	0.002099	0.023671
34221	28213124	-2.388948	0.834361	9.474957	0.033464	0.010280	0.014149	-0.005972	0.002085	0.023688
34222	28213149	-2.364122	0.856384	9.477710	0.030145	0.009511	0.017200	-0.005910	0.002140	0.023694
34223	28213174	-2.377802	0.870161	9.461784	0.026816	0.012332	0.019056	-0.005944	0.002174	0.023655
34224	28213199	-2.383351	0.870151	9.468424	0.028886	0.013605	0.011660	-0.005958	0.002174	0.023671
34225	28213224	-2.390277	0.856434	9.465727	0.025621	0.009938	0.015782	-0.005975	0.002140	0.023664
34226	28213249	-2.383429	0.830231	9.473618	0.022677	0.011387	0.015193	-0.005958	0.002075	0.023684
34227	28213274	-2.375115	0.827557	9.454993	0.021844	0.009143	0.017387	-0.005938	0.002068	0.023638
34228	28213299	-2.388993	0.826057	9.484236	0.020282	0.013337	0.006066	-0.005972	0.002064	0.023711
34229	28213324	-2.386242	0.831488	9.505549	0.025131	0.012329	0.014709	-0.005965	0.002078	0.023764
34230	28213349	-2.391762	0.817762	9.496186	0.022131	0.011042	0.017196	-0.005979	0.002044	0.023741
34231	28213374	-2.379340	0.827368	9.501560	0.023156	0.011596	0.012307	-0.005948	0.002068	0.023754
34232	28213399	-2.390347	0.834322	9.488259	0.016709	0.004750	0.015527	-0.005976	0.002085	0.023721
34233	28213424	-2.395800	0.857709	9.481688	0.017539	0.006998	0.013460	-0.005989	0.002144	0.023704
34236	28213449	-2.406860	0.837097	9.474958	0.020711	0.010210	0.012727	-0.006017	0.002092	0.023688
34237	28213474	-2.383354	0.855068	9.460409	0.022814	0.009447	0.012620	-0.005958	0.002137	0.023651
34238	28213499	-2.369572	0.830352	9.444375	0.017077	0.011764	0.006419	-0.005924	0.002075	0.023611
34239	28213524	-2.380646	0.835770	9.468323	0.020047	0.007008	0.010340	-0.005951	0.002089	0.023671
34240	28213549	-2.364113	0.859113	9.479046	0.023636	0.007483	0.008486	-0.005910	0.002147	0.023698
34241	28213574	-2.380647	0.864607	9.480385	0.015277	0.011048	0.009108	-0.005951	0.002161	0.023701
34242	28213599	-2.394495	0.853562	9.494971	0.013392	0.013638	0.008461	-0.005986	0.002133	0.023738
34243	28213624	-2.412412	0.832872	9.500219	0.014077	0.010420	0.001310	-0.006031	0.002082	0.023751
34244	28213649	-2.353100	0.834389	9.469652	0.015682	0.010784	0.004277	-0.005882	0.002085	0.023674
34245	28213674	-2.317216	0.789076	9.428310	0.012276	0.010240	0.005507	-0.005793	0.001972	0.023571
34246	28213699	-2.368340	0.798506	9.488153	0.018924	0.009742	0.010896	-0.005921	0.001996	0.023721
34247	28213724	-2.435959	0.825867	9.537424	0.015952	0.011648	0.007163	-0.006090	0.002064	0.023844
34248	28213749	-2.420698	0.837005	9.508197	0.017765	0.010221	0.009125	-0.006051	0.002092	0.023771
34249	28213774	-2.368234	0.834355	9.469654	0.010861	0.007492	0.012089	-0.005920	0.002085	0.023674
34250	28213799	-2.401396	0.815023	9.489522	0.015573	0.007458	0.014322	-0.006003	0.002037	0.023724
34251	28213824	-2.442770	0.820486	9.501489	0.016564	0.007339	0.011064	-0.006107	0.002051	0.023754
34252	28213849	-2.411088	0.835571	9.514856	0.012721	0.007524	0.014235	-0.006028	0.002088	0.023787
34253	28213874	-2.364109	0.849472	9.473707	0.017415	0.005306	0.010511	-0.005910	0.002123	0.023684
34254	28213899	-2.346186	0.842637	9.464371	0.017029	0.008188	0.008497	-0.005865	0.002106	0.023661
34255	28213924	-2.370988	0.861836	9.487035	0.012936	0.010732	0.008902	-0.005927	0.002154	0.023718
34256	28213949	-2.376514	0.867350	9.481737	0.016373	0.009184	0.007424	-0.005941	0.002168	0.023704
34257	28213974	-2.394448	0.863232	9.483032	0.015162	0.008978	0.006220	-0.005986	0.002158	0.023708
34258	28213999	-2.402723	0.848050	9.492298	0.013889	0.008450	0.004889	-0.006007	0.002120	0.023731
34259	28214024	-2.398640	0.832899	9.500226	0.012721	0.010554	0.005695	-0.005996	0.002082	0.023751
34260	28214049	-2.430370	0.819089	9.509479	0.015169	0.003079	0.009863	-0.006076	0.002047	0.023774
34261	28214074	-2.428881	0.853568	9.492307	0.017264	0.006169	0.009122	-0.006072	0.002133	0.023731
34262	28214099	-2.423429	0.832909	9.496225	0.015587	0.005989	0.005658	-0.006058	0.002082	0.023741
34263	28214124	-2.395779	0.857760	9.473716	0.013760	0.001562	0.005713	-0.005989	0.002144	0.023684
34264	28214149	-2.387525	0.848142	9.475011	0.012933	0.001152	0.011730	-0.005969	0.002120	0.023688
34265	28214174	-2.386142	0.846776	9.471020	0.013839	0.000139	0.011928	-0.005965	0.002116	0.023678
34266	28214199	-2.377881	0.838536	9.457691	0.009696	-0.000018	0.009637	-0.005945	0.002096	0.023644
34267	28214224	-2.347578	0.804143	9.460254	0.011438	0.003700	0.012533	-0.005869	0.002010	0.023651
34268	28214249	-2.343471	0.830216	9.473655	0.012715	0.002611	0.011794	-0.005859	0.002075	0.023684
34269	28214274	-2.384887	0.802654	9.486827	0.010628	-0.002360	0.009774	-0.005962	0.002006	0.023717
34270	28214299	-2.372329	0.846777	9.459057	0.012761	0.000466	0.012484	-0.005931	0.002116	0.023648
34271	28214324	-2.410936	0.860487	9.477706	0.011656	0.001454	0.010902	-0.006027	0.002151	0.023694
34272	28214349	-2.394362	0.878431	9.465789	0.017725	-0.000341	0.005995	-0.005986	0.002196	0.023665
34273	28214374	-2.359861	0.888085	9.455208	0.006822	0.000131	0.006789	-0.005900	0.002220	0.023638
34274	28214399	-2.337942	0.828867	9.463005	0.008543	0.003503	0.007810	-0.005845	0.002072	0.023658
34275	28214424	-2.350298	0.853628	9.469739	0.007486	0.000250	0.010373	-0.005876	0.002134	0.023674
34276	28214449	-2.369641	0.832975	9.474974	0.007816	0.003429	0.011189	-0.005924	0.002082	0.023687
34277	28214474	-2.387561	0.842605	9.481638	0.006367	0.006069	0.009921	-0.005969	0.002106	0.023704
34278	28214499	-2.359930	0.856420	9.465752	0.006840	0.004169	0.009800	-0.005900	0.002141	0.023664
34279	28214524	-2.364013	0.882587	9.452527	0.007002	0.005747	0.009486	-0.005910	0.002206	0.023631
34280	28214549	-2.355775	0.860542	9.459110	0.003697	0.004230	0.005442	-0.005889	0.002151	0.023648
34281	28214574	-2.353045	0.860512	9.472419	0.005071	0.005758	0.005956	-0.005882	0.002151	0.023681
34282	28214599	-2.358595	0.856386	9.475051	0.013097	0.007987	0.007398	-0.005896	0.002141	0.023688
34283	28214624	-2.366948	0.826025	9.488252	0.011036	0.007208	0.002232	-0.005917	0.002065	0.023721
34284	28214649	-2.388926	0.849451	9.485659	0.005323	0.009163	0.005136	-0.005972	0.002123	0.023714
34285	28214674	-2.373773	0.855005	9.477691	0.009285	0.009219	0.001274	-0.005934	0.002137	0.023694
34286	28214699	-2.405477	0.853572	9.493635	0.006281	0.008449	0.004202	-0.006013	0.002134	0.023734
34287	28214724	-2.398604	0.850793	9.492305	0.007513	0.008108	0.006786	-0.005996	0.002127	0.023731
34288	28214749	-2.390330	0.852189	9.493646	0.006613	0.006655	0.002825	-0.005976	0.002130	0.023734
34289	28214774	-2.376545	0.843931	9.488311	0.006680	0.006922	0.003642	-0.005941	0.002110	0.023721
34290	28214799	-2.375245	0.835597	9.509559	0.009373	0.004239	0.002284	-0.005938	0.002089	0.023774
34291	28214824	-2.369643	0.841226	9.480320	0.006975	0.006215	0.007038	-0.005924	0.002103	0.023701
34292	28214849	-2.397216	0.861788	9.500323	0.010028	0.006764	0.001973	-0.005993	0.002154	0.023751
34293	28214874	-2.395809	0.870072	9.487051	0.008377	0.010757	0.002272	-0.005989	0.002175	0.023718
34294	28214899	-2.398580	0.864580	9.488355	0.002378	0.001633	0.001350	-0.005996	0.002161	0.023721
34295	28214924	-2.393094	0.856320	9.493650	0.006260	0.007379	0.000371	-0.005983	0.002141	0.023734
34296	28214949	-2.409576	0.850878	9.475010	0.004542	0.004475	0.001113	-0.006024	0.002127	0.023688
34297	28214974	-2.431650	0.868720	9.496334	0.006174	0.002925	0.003453	-0.006079	0.002172	0.023741
34298	28214999	-2.433137	0.831466	9.516169	0.008757	0.006421	0.000580	-0.006083	0.002078	0.023790
34299	28215024	-2.411061	0.832848	9.508203	0.013402	0.003782	-0.002018	-0.006028	0.002082	0.023771
34300	28215049	-2.417959	0.830108	9.510851	0.009035	0.004640	-0.000045	-0.006045	0.002075	0.023777
34301	28215074	-2.431746	0.842450	9.516201	0.014773	0.005493	-0.001758	-0.006079	0.002106	0.023791
34302	28215099	-2.419317	0.846632	9.506909	0.010386	0.002977	-0.000973	-0.006048	0.002116	0.023767
34303	28215124	-2.401369	0.819193	9.481554	0.013362	0.001796	0.004452	-0.006003	0.002048	0.023704
34304	28215149	-2.368198	0.830315	9.444380	0.004449	0.002530	0.001995	-0.005920	0.002076	0.023611
34305	28215174	-2.369530	0.855191	9.431144	0.011224	-0.000775	0.001994	-0.005924	0.002138	0.023578
34306	28215199	-2.328140	0.863365	9.436530	0.012721	-0.000572	-0.001141	-0.005820	0.002158	0.023591
34307	28215224	-2.304757	0.859261	9.436525	0.012755	0.003111	-0.004591	-0.005762	0.002148	0.023591
34308	28215249	-2.279903	0.888159	9.435302	0.011092	0.008397	-0.003162	-0.005700	0.002220	0.023588
34309	28215274	-2.319916	0.860604	9.439175	0.014572	0.013678	-0.001071	-0.005799	0.002151	0.023598
34310	28215299	-2.344787	0.834410	9.456375	0.010855	0.015450	-0.001669	-0.005862	0.002086	0.023641
34311	28215324	-2.343399	0.839907	9.460388	0.005922	0.012693	0.000432	-0.005858	0.002100	0.023651
34312	28215349	-2.354381	0.856464	9.449779	0.010785	0.014693	0.002791	-0.005886	0.002141	0.023625
34313	28215374	-2.351625	0.863373	9.447143	0.007538	0.022471	0.001940	-0.005878	0.002158	0.023618
34314	28215399	-2.347442	0.863402	9.432523	0.007305	0.020301	-0.007226	-0.005868	0.002158	0.023581
34315	28215424	-2.341945	0.845560	9.424481	0.008193	0.024411	0.000566	-0.005854	0.002114	0.023561
34316	28215449	-2.314466	0.820680	9.448369	0.006361	0.025946	-0.002776	-0.005785	0.002052	0.023621
34317	28215474	-2.299260	0.837230	9.439119	0.003713	0.033140	-0.001110	-0.005747	0.002093	0.023598
34318	28215499	-2.286850	0.855087	9.443161	0.007813	0.033407	-0.003649	-0.005716	0.002138	0.023608
34319	28215524	-2.321320	0.860552	9.451149	0.001037	0.035138	-0.006968	-0.005802	0.002151	0.023628
34320	28215549	-2.318537	0.870277	9.437877	0.003763	0.041623	-0.008719	-0.005795	0.002176	0.023595
34321	28215574	-2.325431	0.879848	9.453872	0.004891	0.044148	-0.005440	-0.005812	0.002200	0.023635
34322	28215599	-2.333708	0.849596	9.447123	0.009094	0.049432	-0.007233	-0.005833	0.002124	0.023618
34323	28215624	-2.329648	0.837139	9.463031	0.004338	0.049230	-0.008214	-0.005823	0.002093	0.023658
34324	28215649	-2.351737	0.843936	9.484331	0.003627	0.049987	-0.008534	-0.005878	0.002110	0.023711
34325	28215674	-2.329643	0.857774	9.468423	0.006315	0.053443	-0.006004	-0.005823	0.002144	0.023671
34326	28215699	-2.317141	0.863380	9.437859	0.005679	0.059743	-0.008336	-0.005791	0.002158	0.023595
34327	28215724	-2.277173	0.861995	9.439212	0.009374	0.061357	-0.010188	-0.005691	0.002155	0.023598
34328	28215749	-2.290898	0.892324	9.428658	0.007264	0.060935	-0.012907	-0.005725	0.002231	0.023572
34329	28215774	-2.259201	0.890900	9.432668	0.002943	0.066090	-0.011940	-0.005646	0.002227	0.023582
34330	28215799	-2.299241	0.879836	9.449888	0.002915	0.071342	-0.012071	-0.005746	0.002200	0.023625
34331	28215824	-2.308966	0.878359	9.477811	0.009169	0.075221	-0.014473	-0.005770	0.002196	0.023695
34332	28215849	-2.319939	0.870156	9.467145	0.009190	0.080116	-0.017177	-0.005797	0.002175	0.023668
34333	28215874	-2.354399	0.886653	9.468513	0.009581	0.081702	-0.012971	-0.005884	0.002216	0.023672
34334	28215899	-2.362726	0.856358	9.477714	0.003107	0.086686	-0.018488	-0.005904	0.002141	0.023695
34335	28215924	-2.364184	0.846643	9.498950	0.004631	0.088525	-0.022246	-0.005908	0.002117	0.023748
34337	28215949	-2.375197	0.860400	9.506979	0.011006	0.089569	-0.023639	-0.005935	0.002151	0.023768
34339	28215974	-2.383448	0.864581	9.492353	0.009936	0.095421	-0.018254	-0.005956	0.002161	0.023732
34340	28215999	-2.393045	0.864580	9.484378	0.012156	0.100084	-0.023517	-0.005980	0.002161	0.023712
34341	28216024	-2.408225	0.857674	9.491004	0.007591	0.099823	-0.024307	-0.006018	0.002144	0.023728
34342	28216049	-2.391600	0.868813	9.457783	0.012645	0.097685	-0.022945	-0.005976	0.002172	0.023645
34343	28216074	-2.377858	0.914082	9.500508	0.012000	0.102377	-0.022765	-0.005942	0.002285	0.023752
34344	28216099	-2.369533	0.936129	9.488619	0.012322	0.103770	-0.026593	-0.005921	0.002340	0.023722
34345	28216124	-2.310248	0.903262	9.448635	0.013137	0.108556	-0.032490	-0.005772	0.002258	0.023622
34346	28216149	-2.304658	0.900534	9.431341	0.014354	0.111337	-0.032797	-0.005758	0.002251	0.023579
34347	28216174	-2.259169	0.915726	9.419445	0.010718	0.114846	-0.035588	-0.005644	0.002289	0.023549
34348	28216199	-2.264591	0.935124	9.400877	0.014664	0.123665	-0.038327	-0.005658	0.002338	0.023503
34349	28216224	-2.321193	0.992572	9.480851	0.012635	0.124244	-0.045629	-0.005799	0.002481	0.023703
34350	28216249	-2.347488	0.927854	9.492593	0.008637	0.129163	-0.051129	-0.005865	0.002320	0.023732
34351	28216274	-2.351793	0.841131	9.500282	0.014724	0.130874	-0.054599	-0.005875	0.002103	0.023752
34352	28216299	-2.384977	0.779134	9.520011	0.011753	0.136410	-0.057016	-0.005958	0.001948	0.023801
34353	28216324	-2.348016	0.697813	9.555657	0.011352	0.138468	-0.063235	-0.005866	0.001745	0.023890
34354	28216349	-2.485746	0.787165	9.587806	0.017880	0.140201	-0.060682	-0.006210	0.001968	0.023971
34355	28216374	-2.562685	0.985189	9.619023	0.018452	0.139400	-0.063126	-0.006402	0.002463	0.024049
34356	28216399	-2.464652	0.967712	9.515259	0.013179	0.136866	-0.067934	-0.006157	0.002419	0.023789
34357	28216424	-2.416335	0.892278	9.443222	0.014883	0.139028	-0.071310	-0.006037	0.002231	0.023609
34358	28216449	-2.477376	0.814817	9.558646	0.015886	0.141735	-0.067981	-0.006189	0.002037	0.023898
34359	28216474	-2.522855	0.872430	9.602694	0.020391	0.146717	-0.072972	-0.006303	0.002181	0.024008
34360	28216499	-2.453979	0.865579	9.601377	0.016321	0.148137	-0.071685	-0.006130	0.002164	0.024005
34361	28216524	-2.451117	0.831417	9.530771	0.019731	0.154813	-0.073548	-0.006123	0.002079	0.023828
34362	28216549	-2.431826	0.867060	9.562835	0.017418	0.161433	-0.071435	-0.006075	0.002168	0.023908
34363	28216574	-2.439737	0.976082	9.483384	0.030522	0.166175	-0.070897	-0.006094	0.002440	0.023710
34364	28216599	-2.449363	0.991243	9.478099	0.032783	0.167632	-0.070564	-0.006118	0.002478	0.023697
34365	28216624	-2.403981	0.926543	9.475258	0.028162	0.172633	-0.067213	-0.006005	0.002316	0.023690
34366	28216649	-2.393085	0.892038	9.516373	0.031352	0.178684	-0.060725	-0.005977	0.002230	0.023792
34367	28216674	-2.412504	0.841008	9.530830	0.039598	0.187930	-0.063998	-0.006025	0.002102	0.023829
34368	28216699	-2.419558	0.759819	9.543854	0.040887	0.196357	-0.059727	-0.006043	0.001899	0.023861
34369	28216724	-2.403271	0.633093	9.570048	0.043926	0.203741	-0.053051	-0.006002	0.001582	0.023927
34370	28216749	-2.478967	0.703231	9.584870	0.043483	0.210214	-0.047918	-0.006191	0.001757	0.023964
34371	28216774	-2.488435	0.788613	9.561211	0.044467	0.212055	-0.047658	-0.006215	0.001971	0.023905
34372	28216799	-2.491165	0.783228	9.546558	0.052190	0.215945	-0.041322	-0.006221	0.001957	0.023868
34373	28216824	-2.528184	0.834305	9.492172	0.050174	0.224566	-0.044675	-0.006314	0.002085	0.023732
34374	28216849	-2.533637	0.878337	9.502951	0.049146	0.228654	-0.038598	-0.006327	0.002195	0.023759
34375	28216874	-2.407934	0.836198	9.349917	0.054978	0.227048	-0.039925	-0.006013	0.002089	0.023377
34376	28216899	-2.263494	0.691620	9.362819	0.055452	0.235438	-0.034271	-0.005652	0.001728	0.023409
34377	28216924	-2.219522	0.659831	9.392015	0.058511	0.249964	-0.040844	-0.005541	0.001648	0.023482
34378	28216949	-2.249935	0.714673	9.460008	0.057133	0.268336	-0.040561	-0.005617	0.001785	0.023652
34379	28216974	-2.348987	0.772537	9.441528	0.056194	0.283025	-0.032486	-0.005864	0.001930	0.023606
34380	28216999	-2.301789	0.859632	9.343409	0.066561	0.286233	-0.029139	-0.005746	0.002147	0.023361
34381	28217024	-2.214743	0.844808	9.247635	0.069529	0.301580	-0.035779	-0.005528	0.002110	0.023121
34382	28217049	-2.184547	0.815778	9.282160	0.068517	0.315158	-0.038372	-0.005452	0.002038	0.023208
34383	28217074	-2.184521	0.894136	9.302356	0.067309	0.332245	-0.035317	-0.005452	0.002234	0.023258
34384	28217099	-2.155433	0.971187	9.301307	0.064836	0.350794	-0.036041	-0.005378	0.002426	0.023256
34385	28217124	-2.148371	1.040143	9.265634	0.062381	0.373314	-0.033881	-0.005360	0.002599	0.023167
34386	28217149	-2.239233	1.029267	9.233628	0.051734	0.381997	-0.037935	-0.005587	0.002572	0.023087
34387	28217174	-2.261550	0.936846	9.291823	0.052466	0.393598	-0.041141	-0.005642	0.002341	0.023232
34388	28217199	-2.325257	0.896555	9.388739	0.047322	0.408854	-0.049672	-0.005801	0.002240	0.023475
34389	28217224	-2.289521	0.860794	9.397958	0.048506	0.424480	-0.050747	-0.005711	0.002151	0.023498
34390	28217249	-2.267682	0.779438	9.429610	0.054002	0.440565	-0.058433	-0.005656	0.001947	0.023577
34391	28217274	-2.277367	0.839772	9.490998	0.044619	0.463256	-0.066063	-0.005680	0.002099	0.023731
34392	28217299	-2.348674	0.784070	9.305900	0.059682	0.480390	-0.070044	-0.005858	0.001959	0.023268
34393	28217324	-2.377435	0.938016	9.342300	0.049511	0.490943	-0.068374	-0.005929	0.002344	0.023360
34394	28217349	-2.336004	0.949302	9.293148	0.049451	0.494248	-0.075600	-0.005825	0.002372	0.023237
34395	28217374	-2.331831	0.980824	9.310537	0.047870	0.506327	-0.081021	-0.005815	0.002451	0.023280
34396	28217399	-2.362286	0.990244	9.366415	0.053875	0.530210	-0.087836	-0.005890	0.002475	0.023420
34397	28217424	-2.370542	0.976580	9.353074	0.052999	0.547551	-0.096652	-0.005910	0.002441	0.023387
34398	28217449	-2.413367	0.900904	9.347484	0.056186	0.571649	-0.106128	-0.006016	0.002251	0.023373
34399	28217474	-2.377430	0.920226	9.320953	0.048138	0.589518	-0.114173	-0.005926	0.002300	0.023307
34400	28217499	-2.271317	0.997131	9.366485	0.054514	0.606172	-0.114323	-0.005660	0.002492	0.023421
34401	28217524	-2.202245	0.990579	9.272056	0.046244	0.628290	-0.118102	-0.005487	0.002476	0.023185
34402	28217549	-1.981304	1.236926	9.253059	0.031514	0.654346	-0.114466	-0.004934	0.003092	0.023137
34403	28217574	-1.874863	1.237414	9.108169	0.008109	0.680043	-0.129797	-0.004667	0.003094	0.022774
34404	28217599	-1.942031	1.144782	8.892334	0.012898	0.720926	-0.146382	-0.004835	0.002862	0.022235
34405	28217624	-1.967069	1.075502	8.995864	0.025485	0.752941	-0.167398	-0.004896	0.002689	0.022494
34406	28217649	-1.995478	0.799892	9.123948	0.028291	0.771399	-0.181027	-0.004966	0.002000	0.022815
34407	28217674	-2.125543	0.565530	9.252081	0.076905	0.805964	-0.209254	-0.005290	0.001413	0.023136
34408	28217699	-2.108895	0.533948	9.173528	0.069207	0.847450	-0.225845	-0.005248	0.001334	0.022940
34409	28217724	-2.267018	0.107104	9.279755	0.069881	0.879659	-0.238319	-0.005642	0.000267	0.023206
34410	28217749	-2.477661	-0.160639	9.116504	0.102581	0.914569	-0.277594	-0.006168	-0.000402	0.022798
34411	28217774	-2.401557	-0.133366	9.555494	0.111654	0.930484	-0.308424	-0.005976	-0.000334	0.023896
34412	28217799	-2.105426	-0.217357	9.538076	0.136484	0.942356	-0.337672	-0.005236	-0.000545	0.023851
34413	28217824	-2.036501	-0.191306	9.572901	0.161894	0.975791	-0.375985	-0.005062	-0.000481	0.023938
34414	28217849	-2.199176	0.092998	9.731979	0.172696	1.008866	-0.413667	-0.005467	0.000230	0.024337
34415	28217874	-2.425707	0.438883	9.618697	0.198971	1.036016	-0.443943	-0.006033	0.001095	0.024055
34416	28217899	-2.621851	1.278816	9.828819	0.178419	1.056734	-0.469357	-0.006520	0.003195	0.024581
34417	28217924	-2.690389	1.893755	9.884031	0.095734	1.068512	-0.480560	-0.006690	0.004735	0.024720
34418	28217949	-2.683487	1.874144	9.287988	0.073658	1.111198	-0.524926	-0.006673	0.004688	0.023230
34419	28217974	-2.823429	1.996497	8.567520	0.041974	1.165899	-0.563887	-0.007024	0.004995	0.021429
34420	28217999	-2.964631	1.557167	7.939480	-0.033559	1.216672	-0.593300	-0.007378	0.003899	0.019860
34421	28218024	-3.366968	0.693438	7.465618	-0.078230	1.271356	-0.644456	-0.008386	0.001742	0.018677
34422	28218049	-3.492493	0.464727	7.524382	-0.106697	1.340915	-0.684679	-0.008699	0.001172	0.018825
34423	28218074	-3.418492	0.436265	8.143057	-0.166868	1.396147	-0.710361	-0.008510	0.001102	0.020372
34424	28218099	-3.723318	-0.494301	8.207654	-0.284906	1.460960	-0.749031	-0.009272	-0.001220	0.020537
34425	28218124	-5.130732	-0.817029	8.929725	-0.357366	1.532951	-0.834452	-0.012786	-0.002019	0.022350
34426	28218149	-6.757445	-0.909932	10.298383	-0.412676	1.566747	-0.902996	-0.016846	-0.002243	0.025780
34427	28218174	-7.710240	-0.908394	10.994582	-0.431118	1.550093	-0.949272	-0.019225	-0.002233	0.027525
34428	28218199	-8.345445	-0.632318	11.875516	-0.459201	1.524386	-0.994566	-0.020809	-0.001538	0.029729
34429	28218224	-8.762936	-0.154282	13.224324	-0.526691	1.475245	-1.051774	-0.021847	-0.000335	0.033101
34430	28218249	-9.192260	0.097920	14.294285	-0.556858	1.441233	-1.121583	-0.022916	0.000302	0.035777
34431	28218274	-10.135762	0.427905	16.702454	-0.565574	1.371208	-1.191592	-0.025266	0.001137	0.041799
34432	28218299	-11.395084	0.919036	19.895793	-0.490195	1.231920	-1.233397	-0.028407	0.002372	0.049782
34433	28218324	-12.348623	1.622324	22.348689	-0.411763	1.053692	-1.220545	-0.030792	0.004132	0.055910
34434	28218349	-12.535411	2.020739	23.957868	-0.359912	0.888016	-1.181955	-0.031264	0.005125	0.059927
34435	28218374	-12.551938	2.423809	24.696068	-0.287108	0.717192	-1.154551	-0.031316	0.006127	0.061766
34436	28218399	-12.438784	2.778542	24.811654	-0.220220	0.551987	-1.112134	-0.031044	0.007007	0.062049
34437	28218424	-12.170246	2.975161	24.421417	-0.148438	0.382823	-1.091944	-0.030386	0.007491	0.061067
34438	28218449	-11.877422	3.299763	23.714998	-0.101776	0.214644	-1.055442	-0.029667	0.008296	0.059294
34441	28218474	-11.417828	3.543854	22.444511	-0.039117	0.072275	-1.038985	-0.028528	0.008899	0.056113
34442	28218499	-10.751235	3.746087	20.957145	0.009508	-0.047918	-1.024150	-0.026869	0.009399	0.052391
34443	28218524	-10.196910	3.718471	19.104561	0.039274	-0.146884	-1.017407	-0.025489	0.009326	0.047757
34444	28218549	-9.498250	3.665658	17.374339	0.063898	-0.225210	-0.995201	-0.023746	0.009190	0.043430
34445	28218574	-8.745637	3.494894	15.504119	0.067619	-0.278701	-0.986743	-0.021867	0.008761	0.038753
34446	28218599	-8.217398	3.474821	13.534362	0.074270	-0.289208	-0.981504	-0.020545	0.008709	0.033829
34447	28218624	-7.753985	3.263772	12.142741	0.054398	-0.273180	-0.967594	-0.019385	0.008181	0.030351
34448	28218649	-7.344789	3.044079	10.913175	0.017582	-0.258534	-0.961156	-0.018362	0.007632	0.027277
34449	28218674	-7.027381	3.050405	9.589917	0.002147	-0.203915	-0.976694	-0.017565	0.007647	0.023970
34450	28218699	-6.859490	2.956036	9.051038	-0.018293	-0.144501	-0.997614	-0.017144	0.007412	0.022624
34451	28218724	-6.788635	2.840299	8.734089	-0.040603	-0.069331	-1.023342	-0.016964	0.007124	0.021833
34452	28218749	-6.893663	2.805498	8.852297	-0.063719	0.014253	-1.041559	-0.017225	0.007038	0.022130
34453	28218774	-7.057391	2.742034	9.264349	-0.094646	0.082298	-1.057938	-0.017632	0.006881	0.023162
34454	28218799	-7.309125	2.702191	9.629839	-0.128441	0.148855	-1.071835	-0.018259	0.006784	0.024077
34455	28218824	-7.332584	2.638194	10.169630	-0.144281	0.199965	-1.093601	-0.018316	0.006625	0.025427
34456	28218849	-7.354658	2.550994	10.677427	-0.166544	0.247482	-1.102355	-0.018370	0.006408	0.026698
34457	28218874	-7.370023	2.407165	11.239560	-0.177936	0.287375	-1.107946	-0.018407	0.006050	0.028104
34458	28218899	-7.402103	2.223213	11.854780	-0.180541	0.324506	-1.115092	-0.018485	0.005590	0.029643
34459	28218924	-7.415951	2.148126	12.434458	-0.174049	0.351934	-1.114750	-0.018519	0.005403	0.031093
34460	28218949	-7.409066	2.106205	12.955704	-0.166471	0.366721	-1.116962	-0.018500	0.005298	0.032397
34461	28218974	-7.458521	2.115391	13.443831	-0.162941	0.389654	-1.116452	-0.018623	0.005321	0.033618
34462	28218999	-7.427784	2.161824	13.885589	-0.163436	0.396496	-1.112944	-0.018545	0.005437	0.034722
34463	28219024	-7.407517	2.148862	14.039858	-0.167964	0.398594	-1.121141	-0.018494	0.005405	0.035108
34464	28219049	-7.321227	2.193283	14.282147	-0.175475	0.404416	-1.122956	-0.018277	0.005517	0.035713
34465	28219074	-7.164473	2.196898	14.412587	-0.198794	0.403789	-1.125014	-0.017885	0.005526	0.036039
34466	28219099	-7.069327	2.253177	14.443443	-0.224045	0.406875	-1.128851	-0.017647	0.005668	0.036116
34467	28219124	-6.901416	2.347493	14.579512	-0.252996	0.408642	-1.132527	-0.017227	0.005905	0.036456
34468	28219149	-6.774983	2.382650	14.747330	-0.293890	0.400278	-1.136914	-0.016911	0.005994	0.036875
34469	28219174	-6.754453	2.432014	14.816631	-0.332073	0.397778	-1.146132	-0.016859	0.006120	0.037047
34470	28219199	-6.662933	2.319598	15.046443	-0.373294	0.395662	-1.139856	-0.016630	0.005840	0.037622
34471	28219224	-6.548992	2.304957	15.271244	-0.413802	0.393938	-1.152413	-0.016345	0.005806	0.038183
34472	28219249	-6.388241	2.304387	15.442887	-0.428356	0.377083	-1.162489	-0.015944	0.005805	0.038612
34473	28219274	-6.259562	2.297434	15.807393	-0.440397	0.369017	-1.166462	-0.015622	0.005788	0.039523
34474	28219299	-6.191432	2.271673	16.097301	-0.448966	0.356245	-1.174051	-0.015452	0.005724	0.040247
34475	28219324	-6.157878	2.318276	16.517779	-0.441668	0.340645	-1.171215	-0.015369	0.005841	0.041298
34476	28219349	-6.086523	2.350738	16.661586	-0.425297	0.318007	-1.156433	-0.015191	0.005921	0.041657
34477	28219374	-5.988752	2.320487	16.648233	-0.410848	0.291610	-1.142546	-0.014948	0.005844	0.041623
34478	28219399	-5.792827	2.275461	16.535137	-0.385432	0.262079	-1.118511	-0.014461	0.005729	0.041340
34479	28219424	-5.476813	2.295252	16.361150	-0.362677	0.231713	-1.095562	-0.013672	0.005775	0.040904
34480	28219449	-5.222590	2.311362	16.097981	-0.334723	0.207311	-1.075466	-0.013038	0.005813	0.040246
34481	28219474	-4.979424	2.339735	15.860128	-0.315119	0.189054	-1.055700	-0.012431	0.005881	0.039651
34482	28219499	-4.726788	2.380284	15.679513	-0.293478	0.178926	-1.034475	-0.011800	0.005980	0.039199
34483	28219524	-4.596178	2.509506	15.347510	-0.281553	0.168991	-1.013075	-0.011474	0.006302	0.038369
34484	28219549	-4.398088	2.637305	14.991595	-0.266409	0.162232	-0.987576	-0.010979	0.006619	0.037479
34485	28219574	-4.293700	2.732280	14.636826	-0.261977	0.152871	-0.966369	-0.010719	0.006856	0.036592
34486	28219599	-4.083460	2.866579	14.416612	-0.260307	0.148056	-0.935008	-0.010194	0.007190	0.036041
34487	28219624	-3.942387	3.052606	14.336179	-0.257744	0.147288	-0.904148	-0.009841	0.007654	0.035840
34488	28219649	-3.842993	3.333144	14.402307	-0.262919	0.147799	-0.880766	-0.009592	0.008355	0.036005
34489	28219674	-3.753316	3.584509	14.525573	-0.260335	0.145310	-0.838417	-0.009367	0.008983	0.036313
34490	28219699	-3.757439	3.823424	14.663395	-0.267202	0.142355	-0.798157	-0.009378	0.009580	0.036657
34491	28219724	-3.826251	3.917036	14.667621	-0.266966	0.132450	-0.747480	-0.009550	0.009814	0.036667
34492	28219749	-3.751630	3.955669	14.630575	-0.265300	0.113587	-0.686917	-0.009365	0.009909	0.036574
34493	28219774	-3.603784	3.910939	14.433668	-0.258386	0.090857	-0.626627	-0.008998	0.009796	0.036082
34494	28219799	-3.350853	3.796666	14.076969	-0.254923	0.067852	-0.567734	-0.008367	0.009509	0.035190
34495	28219824	-3.140470	3.693703	13.625860	-0.247687	0.050415	-0.508572	-0.007843	0.009250	0.034062
34496	28219849	-2.888343	3.591296	13.023149	-0.244235	0.041783	-0.450130	-0.007214	0.008992	0.032556
34497	28219874	-2.565768	3.460242	12.355214	-0.259767	0.031012	-0.384305	-0.006409	0.008664	0.030885
34498	28219899	-2.303737	3.358310	11.632790	-0.261322	0.030947	-0.336839	-0.005755	0.008408	0.029079
34499	28219924	-1.954666	3.226391	10.817245	-0.292406	0.032847	-0.283638	-0.004883	0.008078	0.027040
34500	28219949	-1.594485	2.975255	9.890863	-0.314766	0.051254	-0.243066	-0.003982	0.007449	0.024724
34501	28219974	-1.268788	2.684130	8.965714	-0.342007	0.073662	-0.202031	-0.003168	0.006721	0.022412
34502	28219999	-0.882695	2.340589	8.092238	-0.368680	0.113449	-0.171304	-0.002203	0.005861	0.020228
34503	28220024	-0.536466	2.138565	7.272457	-0.396384	0.161275	-0.149572	-0.001337	0.005356	0.018179
34504	28220049	-0.195489	1.757718	6.808527	-0.417779	0.217556	-0.132695	-0.000483	0.004403	0.017019
34505	28220074	0.043024	1.476375	6.594926	-0.429921	0.281189	-0.118954	0.000114	0.003700	0.016485
34506	28220099	0.100663	1.231590	6.554244	-0.434230	0.340125	-0.104909	0.000259	0.003088	0.016384
34507	28220124	-0.003339	0.957372	6.659687	-0.432953	0.406504	-0.091712	0.000000	0.002402	0.016648
34508	28220149	0.092483	0.753051	6.815995	-0.436942	0.451773	-0.077145	0.000241	0.001892	0.017039
34509	28220174	0.068612	0.742805	6.984857	-0.454685	0.492728	-0.064197	0.000182	0.001867	0.017461
34510	28220199	0.292767	0.799695	7.221907	-0.454982	0.536774	-0.059013	0.000744	0.002009	0.018053
34511	28220224	0.335024	1.068123	7.571301	-0.455599	0.564909	-0.050752	0.000851	0.002681	0.018926
34512	28220249	0.299762	1.161641	7.945375	-0.456467	0.600910	-0.041306	0.000764	0.002915	0.019861
34513	28220274	0.264863	1.250103	8.197039	-0.467508	0.622048	-0.019558	0.000678	0.003137	0.020490
34514	28220299	0.347120	1.331844	8.416798	-0.486243	0.627716	-0.007336	0.000884	0.003342	0.021039
34515	28220324	0.497343	1.467857	8.481148	-0.487438	0.628208	0.014688	0.001260	0.003683	0.021200
34516	28220349	0.745426	1.590043	8.538894	-0.483695	0.636698	0.038271	0.001880	0.003988	0.021343
34517	28220374	0.909674	1.626073	8.460673	-0.489581	0.636385	0.061153	0.002291	0.004078	0.021147
34518	28220399	1.095946	1.622326	8.357012	-0.483145	0.646927	0.078972	0.002756	0.004069	0.020888
34519	28220424	1.192719	1.640598	8.246730	-0.474301	0.646058	0.096437	0.002998	0.004114	0.020612
34520	28220449	1.275603	1.658723	8.182992	-0.471884	0.647214	0.129549	0.003205	0.004159	0.020452
34521	28220474	1.354314	1.706974	8.159245	-0.454220	0.646713	0.155060	0.003401	0.004280	0.020393
34522	28220499	1.424599	1.761922	8.180745	-0.443976	0.640568	0.183468	0.003577	0.004417	0.020447
34523	28220524	1.525124	1.809831	8.246153	-0.428951	0.629424	0.212109	0.003828	0.004537	0.020610
34524	28220549	1.657265	1.841233	8.319468	-0.415488	0.620936	0.248517	0.004158	0.004615	0.020793
34525	28220574	1.699863	1.901386	8.411496	-0.389664	0.613426	0.271902	0.004264	0.004765	0.021023
34526	28220599	1.767095	1.924225	8.559238	-0.365469	0.598003	0.303313	0.004432	0.004822	0.021393
34527	28220624	1.808028	1.915384	8.709527	-0.345099	0.579938	0.327916	0.004534	0.004800	0.021768
34528	28220649	1.905536	1.968375	8.887986	-0.322631	0.557532	0.357753	0.004777	0.004932	0.022215
34529	28220674	1.948211	2.146859	8.996332	-0.296845	0.530921	0.390503	0.004883	0.005378	0.022486
34530	28220699	2.020597	2.052415	9.227492	-0.267904	0.501509	0.422972	0.005063	0.005141	0.023064
34531	28220724	2.060327	1.879012	9.217656	-0.243825	0.462025	0.454843	0.005161	0.004707	0.023040
34532	28220749	2.082346	1.795252	9.165502	-0.219229	0.426294	0.488094	0.005215	0.004498	0.022910
34533	28220774	2.114653	1.790661	8.919441	-0.195240	0.388363	0.522156	0.005295	0.004486	0.022295
34534	28220799	2.304117	1.695600	8.580064	-0.175177	0.356653	0.548720	0.005767	0.004248	0.021447
34535	28220824	2.609510	1.532010	8.147430	-0.145058	0.327280	0.563502	0.006529	0.003838	0.020365
34536	28220849	2.761669	1.339288	7.790438	-0.124349	0.301363	0.587927	0.006909	0.003356	0.019473
34537	28220874	2.846098	1.254708	7.593346	-0.102246	0.288349	0.599733	0.007120	0.003145	0.018980
34538	28220899	2.888095	1.251526	7.322039	-0.094526	0.266564	0.616828	0.007224	0.003137	0.018302
34539	28220924	2.924194	1.254738	7.212994	-0.075389	0.247194	0.630623	0.007314	0.003144	0.018030
34540	28220949	2.893893	1.267050	7.227651	-0.050594	0.232533	0.646715	0.007237	0.003175	0.018067
34543	28220974	2.887868	1.218189	7.411025	-0.037497	0.209738	0.656131	0.007222	0.003052	0.018526
34544	28220999	2.837548	1.134805	7.650125	-0.007246	0.187062	0.669757	0.007096	0.002843	0.019124
34545	28221024	2.758820	1.106994	7.701883	0.025521	0.158212	0.686801	0.006898	0.002773	0.019253
34546	28221049	2.663067	1.140335	8.001185	0.032012	0.116088	0.698623	0.006658	0.002856	0.020002
34547	28221074	2.585591	1.019026	8.055269	0.047468	0.081271	0.717291	0.006464	0.002552	0.020138
34548	28221099	2.640724	0.973776	8.013925	0.062667	0.040181	0.731009	0.006601	0.002439	0.020035
34549	28221124	2.756560	0.830995	7.913758	0.074171	-0.003015	0.739236	0.006889	0.002082	0.019785
34550	28221149	2.909736	0.735303	7.756590	0.094090	-0.042017	0.740379	0.007272	0.001843	0.019392
34551	28221174	2.946038	0.914545	7.650802	0.115551	-0.074786	0.740329	0.007361	0.002290	0.019128
34552	28221199	2.998138	0.743689	7.696814	0.122494	-0.115752	0.737341	0.007491	0.001863	0.019243
34553	28221224	2.917051	0.524383	7.460621	0.140172	-0.149034	0.733298	0.007288	0.001314	0.018653
34554	28221249	2.812658	0.520773	7.323540	0.143725	-0.183450	0.740567	0.007026	0.001305	0.018311
34555	28221274	2.768944	0.596932	7.212044	0.144891	-0.225075	0.743623	0.006916	0.001495	0.018032
34556	28221299	2.854710	0.631761	7.103147	0.161925	-0.265992	0.736132	0.007129	0.001582	0.017761
34557	28221324	3.021642	0.490646	6.928559	0.171413	-0.298624	0.731599	0.007547	0.001230	0.017324
34558	28221349	3.111664	0.485754	6.751669	0.195044	-0.328070	0.725597	0.007771	0.001217	0.016883
34559	28221374	3.066348	0.488749	6.694458	0.207944	-0.356261	0.725973	0.007657	0.001224	0.016740
34560	28221399	3.040251	0.520517	6.661315	0.229931	-0.391884	0.722094	0.007591	0.001303	0.016657
34561	28221424	3.025135	0.593363	6.688140	0.247258	-0.420600	0.725831	0.007553	0.001485	0.016725
34562	28221449	2.955019	0.699346	6.684449	0.265752	-0.453098	0.726564	0.007376	0.001750	0.016716
34563	28221474	2.999191	0.731041	6.675281	0.282496	-0.490721	0.727734	0.007486	0.001829	0.016693
34564	28221499	3.061358	0.786156	6.654230	0.295384	-0.526549	0.725483	0.007641	0.001966	0.016641
34565	28221524	3.099909	0.808086	6.674255	0.312083	-0.569637	0.724839	0.007736	0.002021	0.016692
34566	28221549	3.090248	0.824540	6.695593	0.337111	-0.601804	0.719348	0.007711	0.002061	0.016746
34567	28221574	3.140241	0.860796	6.557422	0.354491	-0.631272	0.723657	0.007836	0.002152	0.016401
34568	28221599	3.170870	0.896928	6.469754	0.366613	-0.673735	0.730251	0.007912	0.002242	0.016182
34569	28221624	3.230427	0.879590	6.331423	0.390983	-0.712920	0.725083	0.008060	0.002199	0.015837
34570	28221649	3.350866	0.935308	6.138811	0.411844	-0.749083	0.730555	0.008361	0.002338	0.015356
34571	28221674	3.356941	1.052934	5.971639	0.434154	-0.775640	0.730950	0.008375	0.002632	0.014939
34572	28221699	3.380917	1.182831	5.824424	0.457667	-0.806792	0.729025	0.008435	0.002956	0.014571
34573	28221724	3.374564	1.305835	5.681182	0.480372	-0.833933	0.737009	0.008419	0.003264	0.014214
34574	28221749	3.318293	1.443564	5.652347	0.505410	-0.864388	0.743448	0.008277	0.003608	0.014142
34575	28221774	3.267517	1.623709	5.683480	0.525894	-0.890629	0.744005	0.008149	0.004058	0.014220
34576	28221799	3.168542	1.755975	5.658588	0.553553	-0.915964	0.762199	0.007901	0.004388	0.014159
34577	28221824	3.047597	1.834663	5.589623	0.583449	-0.947542	0.779026	0.007598	0.004584	0.013986
34578	28221849	3.057580	1.935431	5.527428	0.605055	-0.981227	0.792858	0.007622	0.004836	0.013832
34579	28221874	3.051137	2.070741	5.393592	0.634383	-1.008392	0.811755	0.007606	0.005174	0.013498
34580	28221899	3.052917	2.182510	5.326069	0.663238	-1.032098	0.832537	0.007609	0.005453	0.013330
34581	28221924	3.040714	2.311926	5.298596	0.692741	-1.048707	0.854068	0.007578	0.005776	0.013261
34582	28221949	2.923873	2.376932	5.218893	0.718833	-1.075213	0.866724	0.007286	0.005939	0.013062
34583	28221974	2.813416	2.380746	5.306641	0.749761	-1.090921	0.885374	0.007009	0.005947	0.013282
34584	28221999	2.736063	2.370853	5.379699	0.781950	-1.117577	0.904419	0.006815	0.005922	0.013465
34585	28222024	2.625564	2.268875	5.427172	0.812655	-1.136745	0.920679	0.006538	0.005666	0.013583
34586	28222049	2.519194	2.190217	5.486693	0.845645	-1.160894	0.934388	0.006272	0.005468	0.013732
34587	28222074	2.419767	2.095197	5.516944	0.884045	-1.184605	0.952349	0.006023	0.005230	0.013807
34588	28222099	2.320527	2.018269	5.482018	0.916421	-1.211181	0.972905	0.005774	0.005037	0.013720
34589	28222124	2.261302	1.912594	5.417822	0.942996	-1.232257	0.992272	0.005626	0.004772	0.013559
34590	28222149	2.252118	1.892729	5.218256	0.985240	-1.258123	1.006135	0.005604	0.004723	0.013060
34591	28222174	2.229219	1.910020	5.004153	1.020744	-1.276816	1.016847	0.005547	0.004766	0.012525
34592	28222199	2.181522	1.942417	4.810019	1.053276	-1.289622	1.038964	0.005428	0.004847	0.012040
34593	28222224	2.126353	1.979547	4.806180	1.081066	-1.304132	1.056836	0.005290	0.004940	0.012031
34594	28222249	2.039293	2.116476	4.978105	1.107259	-1.318090	1.065649	0.005071	0.005281	0.012461
34595	28222274	1.822074	2.230619	5.350800	1.125194	-1.330565	1.087577	0.004525	0.005564	0.013392
34596	28222299	1.467575	2.453842	5.661162	1.134105	-1.356120	1.111388	0.003636	0.006120	0.014168
34597	28222324	1.312023	2.505606	6.186701	1.146543	-1.385437	1.136798	0.003244	0.006246	0.015481
34598	28222349	1.087194	2.591835	6.333163	1.141144	-1.418382	1.172121	0.002680	0.006461	0.015847
34599	28222374	1.028993	2.611784	6.518065	1.141504	-1.456939	1.201274	0.002533	0.006510	0.016309
34600	28222399	0.916014	2.499279	6.448467	1.132211	-1.493019	1.230113	0.002250	0.006229	0.016134
34601	28222424	0.960263	2.434972	6.360507	1.125763	-1.527933	1.260047	0.002361	0.006069	0.015914
34602	28222449	0.872427	2.348979	6.173908	1.119290	-1.559480	1.287204	0.002142	0.005854	0.015447
34603	28222474	0.729355	2.139243	5.976277	1.110843	-1.590245	1.316604	0.001785	0.005330	0.014952
34604	28222499	0.900178	1.905865	5.813394	1.105312	-1.615375	1.340078	0.002213	0.004748	0.014545
34605	28222524	0.799632	1.769943	5.703744	1.109521	-1.628506	1.355871	0.001963	0.004408	0.014270
34606	28222549	0.637963	1.515285	5.728062	1.103814	-1.646555	1.371845	0.001559	0.003771	0.014329
34607	28222574	0.399256	1.381672	5.767372	1.105461	-1.668037	1.388314	0.000962	0.003436	0.014425
34608	28222599	0.237426	1.264204	5.910612	1.098828	-1.689796	1.406223	0.000557	0.003141	0.014782
34609	28222624	0.099198	1.152355	6.012557	1.094914	-1.708828	1.428054	0.000211	0.002861	0.015036
34610	28222649	0.001118	1.141071	6.108282	1.098346	-1.729064	1.445925	-0.000035	0.002832	0.015275
34611	28222674	-0.146462	1.150466	6.162698	1.100405	-1.742141	1.453229	-0.000405	0.002854	0.015410
34612	28222699	-0.393320	1.169389	6.258360	1.089830	-1.763991	1.469470	-0.001023	0.002900	0.015648
34613	28222724	-0.617880	1.151685	6.243553	1.080585	-1.775001	1.485665	-0.001585	0.002855	0.015609
34614	28222749	-0.763669	1.142527	6.125086	1.070366	-1.791412	1.505054	-0.001949	0.002832	0.015312
34615	28222774	-0.898165	1.117251	5.914781	1.058227	-1.801055	1.527998	-0.002284	0.002769	0.014786
34616	28222799	-0.985804	1.053577	5.644491	1.040425	-1.810038	1.544064	-0.002501	0.002611	0.014109
34617	28222824	-1.074724	0.893881	5.316759	1.021773	-1.814227	1.566888	-0.002721	0.002212	0.013289
34618	28222849	-1.072396	0.833536	4.896223	1.008691	-1.813600	1.577341	-0.002713	0.002063	0.012237
34619	28222874	-1.210815	0.636989	4.467175	1.001157	-1.793516	1.586488	-0.003055	0.001572	0.011163
34620	28222899	-1.374108	0.381280	4.037932	0.985737	-1.776369	1.601600	-0.003460	0.000934	0.010088
34621	28222924	-1.515483	0.165275	3.663389	0.970538	-1.753126	1.609486	-0.003810	0.000394	0.009151
34622	28222949	-1.583942	-0.029013	3.366105	0.956217	-1.722455	1.614368	-0.003978	-0.000091	0.008407
34623	28222974	-1.745051	-0.258028	3.145783	0.946426	-1.681030	1.614690	-0.004378	-0.000663	0.007854
34624	28222999	-1.903785	-0.445074	3.121114	0.935213	-1.639223	1.611110	-0.004773	-0.001131	0.007792
34625	28223024	-2.138637	-0.650531	3.214700	0.930294	-1.605323	1.612785	-0.005359	-0.001646	0.008024
34626	28223049	-2.426075	-0.788984	3.448157	0.922762	-1.564036	1.605200	-0.006078	-0.001995	0.008606
34627	28223074	-2.718999	-0.888900	3.689767	0.912361	-1.528750	1.597610	-0.006811	-0.002246	0.009209
34628	28223099	-2.995119	-0.981707	3.864838	0.907758	-1.498058	1.593258	-0.007501	-0.002480	0.009645
34629	28223124	-2.811817	-0.864159	4.832798	0.933316	-1.495387	1.591533	-0.007048	-0.002188	0.012066
34630	28223149	-3.583691	-1.168829	2.748924	0.910726	-1.471411	1.574635	-0.008966	-0.002948	0.006852
34631	28223174	-3.927920	-1.251661	3.624139	0.889353	-1.385114	1.593094	-0.009829	-0.003159	0.009040
34632	28223199	-4.318596	-1.265894	3.380261	0.879770	-1.365923	1.582125	-0.010805	-0.003195	0.008429
34633	28223224	-4.623317	-1.356419	3.332002	0.873330	-1.320884	1.572790	-0.011565	-0.003423	0.008307
34634	28223249	-4.731721	-1.370308	3.726875	0.844317	-1.258753	1.573951	-0.011837	-0.003459	0.009295
34635	28223274	-5.066391	-1.487440	4.117285	0.833278	-1.210986	1.559359	-0.012674	-0.003754	0.010270
34636	28223299	-5.555804	-1.716273	4.593698	0.810332	-1.165283	1.550013	-0.013898	-0.004329	0.011460
34637	28223324	-6.060974	-2.039537	5.315909	0.795900	-1.127858	1.537782	-0.015161	-0.005141	0.013263
34638	28223349	-6.526229	-2.430254	6.032587	0.782464	-1.102337	1.521614	-0.016325	-0.006121	0.015053
34639	28223374	-6.981525	-3.026289	6.481229	0.758474	-1.085923	1.490121	-0.017462	-0.007614	0.016172
34640	28223399	-7.461341	-3.668580	6.759441	0.720567	-1.064308	1.458320	-0.018659	-0.009221	0.016865
34641	28223424	-7.794759	-4.405283	6.923108	0.700042	-1.044778	1.403309	-0.019490	-0.011063	0.017273
34644	28223449	-8.125171	-5.159315	6.876496	0.660502	-1.022411	1.334765	-0.020313	-0.012946	0.017155
34645	28223474	-8.427654	-5.892337	6.758165	0.615919	-0.997188	1.254065	-0.021067	-0.014777	0.016858
34646	28223499	-8.727006	-6.634235	6.452255	0.571691	-0.964535	1.150703	-0.021813	-0.016628	0.016092
34647	28223524	-8.972494	-7.325293	6.138534	0.517369	-0.919690	1.032676	-0.022425	-0.018352	0.015309
34648	28223549	-9.238871	-7.858543	5.965101	0.449054	-0.869230	0.903613	-0.023091	-0.019681	0.014877
34649	28223574	-9.438283	-8.319300	5.532486	0.388336	-0.815569	0.753518	-0.023590	-0.020827	0.013797
34650	28223599	-9.589449	-8.678341	5.137466	0.304911	-0.749207	0.603736	-0.023969	-0.021719	0.012813
34651	28223624	-9.648378	-8.923635	4.857334	0.226882	-0.683877	0.436294	-0.024119	-0.022326	0.012116
34652	28223649	-9.858397	-9.040397	4.451110	0.147702	-0.603765	0.275426	-0.024647	-0.022612	0.011105
34653	28223674	-10.031783	-9.045482	4.347321	0.083320	-0.516832	0.113660	-0.025083	-0.022618	0.010850
34654	28223699	-10.408327	-8.936552	3.948354	0.020012	-0.427075	-0.048167	-0.026027	-0.022340	0.009856
34655	28223724	-10.538712	-8.764257	3.885054	-0.022566	-0.345787	-0.208996	-0.026357	-0.021903	0.009702
34656	28223749	-10.634897	-8.250732	3.481107	-0.067864	-0.247546	-0.354853	-0.026599	-0.020614	0.008696
34657	28223774	-10.792195	-7.929265	3.275844	-0.101307	-0.158483	-0.483350	-0.026994	-0.019806	0.008187
34658	28223799	-11.144633	-7.232283	2.807127	-0.120673	-0.068693	-0.564462	-0.027875	-0.018060	0.007018
34659	28223824	-11.050508	-6.714217	2.573562	-0.129999	0.040138	-0.673995	-0.027640	-0.016761	0.006438
34660	28223849	-11.050330	-5.596996	1.954628	-0.074571	0.158480	-0.795272	-0.027639	-0.013965	0.004893
34661	28223874	-10.767348	-4.926293	2.155194	-0.118469	0.283481	-0.873622	-0.026930	-0.012286	0.005399
34662	28223899	-10.962497	-3.905555	1.970983	-0.122102	0.410555	-0.958403	-0.027415	-0.009730	0.004943
34663	28223924	-11.109358	-3.134536	2.202171	-0.122833	0.540528	-1.013708	-0.027780	-0.007800	0.005525
34664	28223949	-11.291044	-1.907081	2.313975	-0.128262	0.639956	-1.042091	-0.028229	-0.004730	0.005808
34665	28223974	-11.574686	-0.981318	2.779723	-0.111947	0.743279	-1.057765	-0.028933	-0.002414	0.006977
34666	28223999	-11.851417	-0.361199	2.958422	-0.100127	0.855405	-1.039365	-0.029622	-0.000864	0.007428
34667	28224024	-11.759530	0.779309	2.676355	-0.143980	0.967698	-0.995148	-0.029388	0.001986	0.006726
34668	28224049	-11.946970	1.685705	2.096774	-0.154167	1.052567	-0.969948	-0.029855	0.004251	0.005280
34669	28224074	-11.924558	2.194070	1.613101	-0.163601	1.122420	-0.918958	-0.029799	0.005520	0.004073
34670	28224099	-11.908592	2.828715	1.160022	-0.175063	1.196261	-0.867694	-0.029759	0.007105	0.002943
34671	28224124	-11.294933	2.805344	1.100423	-0.173812	1.284272	-0.798041	-0.028226	0.007042	0.002795
34672	28224149	-11.216101	3.423888	1.303128	-0.102383	1.385560	-0.747949	-0.028027	0.008586	0.003305
34673	28224174	-11.026276	3.600879	2.193926	-0.063154	1.484863	-0.673821	-0.027548	0.009026	0.005535
34674	28224199	-11.309873	4.248824	3.035479	-0.007173	1.568213	-0.617195	-0.028252	0.010644	0.007644
34675	28224224	-11.760980	4.652559	4.034126	0.048594	1.618136	-0.526779	-0.029374	0.011650	0.010145
34676	28224249	-12.046267	5.153087	4.894800	0.103889	1.642090	-0.409407	-0.030084	0.012897	0.012300
34677	28224274	-12.069288	5.645949	5.568090	0.167813	1.649841	-0.283700	-0.030139	0.014123	0.013985
34678	28224299	-11.870482	5.932847	6.121102	0.238115	1.644329	-0.155555	-0.029642	0.014833	0.015368
34679	28224324	-11.514666	5.962736	6.569614	0.309673	1.619457	-0.034644	-0.028753	0.014902	0.016488
34680	28224349	-11.228975	6.091762	7.011723	0.381388	1.586914	0.081980	-0.028039	0.015218	0.017592
34681	28224374	-10.513507	5.922177	7.417290	0.465602	1.548974	0.197297	-0.026251	0.014788	0.018603
34682	28224399	-10.257766	5.674284	8.081123	0.512842	1.491099	0.308010	-0.025612	0.014163	0.020260
34683	28224424	-10.168625	5.814223	8.001572	0.615706	1.444587	0.438154	-0.025393	0.014506	0.020061
34684	28224449	-9.450111	4.957143	9.225378	0.694481	1.357430	0.528720	-0.023594	0.012357	0.023114
34685	28224474	-4.908063	23.746812	9.497656	-0.670973	1.211793	0.927295	-0.012303	0.059373	0.023713
34686	28224499	-11.657007	71.198584	42.679682	-8.650793	0.491070	2.910238	-0.029728	0.179029	0.104785
34687	28224524	-66.136797	58.213456	81.025714	-9.900200	-0.504731	4.184247	-0.166236	0.147157	0.200645
34688	28224549	-87.942771	0.924606	102.631887	-5.433016	-0.654907	1.695944	-0.220074	0.003587	0.256378
34689	28224574	-84.851086	-21.743968	117.388390	-1.393636	-1.836551	-1.565381	-0.212906	-0.053433	0.293076
34690	28224599	-55.562269	-24.707660	92.355039	-0.637737	-3.528705	-2.439058	-0.140110	-0.061159	0.230320
34691	28224624	-14.773856	-17.199499	45.177618	-3.842484	-3.807847	-2.454239	-0.037603	-0.042342	0.112971
34692	28224649	21.468475	-10.674887	-35.356055	-1.553336	-2.379701	-2.502546	0.053850	-0.027027	-0.088178
34693	28224674	30.703806	0.013481	-43.533356	1.635780	-0.732556	-2.141987	0.076859	0.000050	-0.108763
34694	28224699	24.339108	-0.403893	-9.161603	-0.313306	-1.743256	-1.081149	0.060896	-0.001101	-0.022771
34695	28224724	11.672238	-12.063538	-10.804450	-1.448610	-2.934040	-0.052934	0.029277	-0.030209	-0.026849
34696	28224749	2.525322	-17.969926	-1.819649	-1.362093	-2.808667	0.206402	0.006341	-0.044931	-0.004450
34697	28224774	2.668430	-10.686988	16.823750	-0.195937	-2.252449	-0.107576	0.006549	-0.026708	0.042084
34698	28224799	5.325892	-1.964259	28.946898	0.297874	-1.739635	-0.142853	0.013156	-0.004940	0.072394
34699	28224824	8.843017	0.107733	28.422050	0.040154	-1.077989	0.036109	0.022012	0.000267	0.071085
34700	28224849	14.351248	-4.154308	19.203945	-0.332847	-0.042255	0.231445	0.035879	-0.010355	0.048016
34701	28224874	17.353103	-13.013782	2.839490	-0.153276	0.829262	0.240192	0.043400	-0.032520	0.007060
34702	28224899	16.513443	-17.502075	-14.720505	0.313132	1.548762	0.152764	0.041221	-0.043733	-0.036898
34703	28224924	14.620975	-13.698912	-16.494151	0.757084	1.682247	0.150420	0.036472	-0.034201	-0.041345
34704	28224949	9.707019	-6.326596	-7.138037	0.559175	1.115610	0.363831	0.024250	-0.015793	-0.017890
34705	28224974	1.722490	1.681184	0.731851	0.210430	0.438751	0.626873	0.004304	0.004206	0.001828
34706	28224999	-4.695375	7.778520	9.111941	0.408046	0.465860	0.529020	-0.011738	0.019427	0.022797
34707	28225024	-7.752557	13.132384	16.929446	0.751999	0.851164	0.217049	-0.019345	0.032786	0.042375
34708	28225049	-8.209886	16.345908	21.024022	0.487814	1.172755	0.013421	-0.020448	0.040832	0.052615
34709	28225074	-7.080005	13.546349	17.281314	-0.041945	1.299768	-0.018027	-0.017629	0.033869	0.043230
34710	28225099	-5.424846	7.941674	9.679099	-0.282459	1.294065	-0.052434	-0.013522	0.019864	0.024213
34711	28225124	-4.766703	3.697553	5.029876	-0.107680	1.115027	-0.201091	-0.011897	0.009249	0.012590
34712	28225149	-3.975335	2.704794	5.461073	-0.035240	0.791198	-0.273101	-0.009923	0.006766	0.013662
34713	28225174	-4.337494	1.298164	8.837243	-0.165580	0.469533	-0.254488	-0.010830	0.003253	0.022099
34714	28225199	-4.790540	-0.094668	12.261051	-0.150219	0.381577	-0.257415	-0.011962	-0.000227	0.030658
34715	28225224	-5.457062	-0.406990	15.173823	-0.103568	0.362189	-0.230815	-0.013626	-0.001009	0.037941
34716	28225249	-5.745712	-0.302957	14.882641	-0.120176	0.330968	-0.150874	-0.014349	-0.000749	0.037213
34717	28225274	-5.144040	1.132491	12.630608	-0.151031	0.259255	-0.087671	-0.012850	0.002839	0.031580
34718	28225299	-3.810398	2.493565	9.632549	-0.180215	0.184992	-0.055307	-0.009520	0.006240	0.024082
34719	28225324	-2.664894	2.916217	8.078521	-0.215277	0.123082	-0.059552	-0.006659	0.007296	0.020195
34720	28225349	-2.484240	2.009707	8.035675	-0.193116	0.082386	-0.072277	-0.006208	0.005030	0.020089
34721	28225374	-2.501568	1.116314	9.527752	-0.194719	0.044139	-0.073515	-0.006252	0.002797	0.023819
34722	28225399	-3.363925	0.734638	11.945381	-0.233889	0.015201	-0.051431	-0.008409	0.001846	0.029863
34723	28225424	-3.738192	0.428607	12.065131	-0.135942	0.020666	-0.025065	-0.009345	0.001077	0.030163
34724	28225449	-3.040768	0.729852	11.660876	-0.156157	0.027493	0.013672	-0.007601	0.001830	0.029152
34725	28225474	-1.762374	0.959165	10.293713	-0.150219	0.013039	0.033697	-0.004406	0.002403	0.025734
34726	28225499	-0.992736	1.762036	9.339171	-0.155081	0.031337	0.034811	-0.002481	0.004410	0.023347
34727	28225524	-0.170587	2.108711	8.625219	-0.164554	0.089215	0.019407	-0.000424	0.005276	0.021562
34728	28225549	0.221346	1.880261	8.261610	-0.145248	0.167365	-0.023867	0.000558	0.004704	0.020653
34729	28225574	0.051112	1.435564	8.321235	-0.119397	0.240704	-0.092362	0.000134	0.003592	0.020803
34730	28225599	-0.822170	0.937205	8.425503	-0.055321	0.279236	-0.141786	-0.002048	0.002345	0.021064
34731	28225624	-1.646559	0.337848	9.364728	-0.045674	0.300209	-0.129716	-0.004107	0.000847	0.023413
34732	28225649	-2.388920	0.197041	10.241693	-0.065783	0.291348	-0.085263	-0.005963	0.000495	0.025606
34733	28225674	-3.226273	0.359341	10.679319	-0.090851	0.281648	-0.025281	-0.008056	0.000902	0.026701
34734	28225699	-3.651117	1.024748	11.255861	-0.088993	0.247127	0.002873	-0.009119	0.002565	0.028142
34735	28225724	-3.644881	1.714408	10.803250	-0.089927	0.201233	0.020421	-0.009106	0.004289	0.027010
34736	28225749	-3.517812	2.025976	10.294928	-0.102767	0.164546	0.021987	-0.008789	0.005068	0.025738
34737	28225774	-3.197285	1.983249	9.950482	-0.094792	0.133632	0.001125	-0.007989	0.004961	0.024877
34738	28225799	-3.098222	1.886900	9.946229	-0.080590	0.106996	-0.020832	-0.007742	0.004720	0.024866
34739	28225824	-2.956173	1.353477	10.153378	-0.071317	0.083980	-0.034423	-0.007388	0.003386	0.025384
34740	28225849	-2.978572	1.204759	10.194095	-0.060426	0.052750	-0.038019	-0.007445	0.003014	0.025486
34741	28225874	-2.884888	0.913531	10.034918	-0.066534	0.032997	-0.018081	-0.007211	0.002286	0.025087
34742	28225899	-2.408586	0.695702	10.114267	-0.067149	0.004655	0.001615	-0.006021	0.001741	0.025286
34743	28225924	-2.021631	0.918506	9.766727	-0.072807	0.007568	0.016150	-0.005054	0.002298	0.024417
34746	28225949	-1.759319	1.081218	9.671662	-0.077362	0.024170	0.027420	-0.004398	0.002705	0.024179
34747	28225974	-1.784731	1.329557	9.508866	-0.074954	0.039841	0.029497	-0.004461	0.003326	0.023772
34748	28225999	-1.866849	1.482848	9.372333	-0.072329	0.040931	0.007099	-0.004666	0.003709	0.023431
34749	28226024	-1.949270	1.593105	9.335407	-0.047429	0.047590	-0.018145	-0.004872	0.003984	0.023339
34750	28226049	-1.966154	1.460708	9.404130	-0.040177	0.056024	-0.020795	-0.004914	0.003653	0.023510
34751	28226074	-1.816496	1.160544	9.424504	-0.038469	0.060315	-0.034027	-0.004539	0.002903	0.023561
34752	28226099	-1.896601	0.696881	9.817956	-0.043441	0.087036	-0.038488	-0.004739	0.001744	0.024545
34753	28226124	-1.901113	0.664666	9.922926	0.010771	0.082321	-0.039880	-0.004750	0.001662	0.024808
34754	28226149	-2.007175	0.682594	9.924247	-0.006165	0.093880	-0.018804	-0.005015	0.001707	0.024811
34755	28226174	-2.042566	0.721685	9.780703	-0.008269	0.096992	0.001580	-0.005103	0.001804	0.024452
34756	28226199	-2.236584	0.928113	9.783944	-0.008053	0.096400	0.017083	-0.005589	0.002320	0.024461
34757	28226224	-2.300631	1.184639	9.647751	0.005874	0.092238	0.007522	-0.005749	0.002961	0.024120
34758	28226249	-2.346340	1.112920	9.692715	0.009546	0.081271	0.007434	-0.005863	0.002782	0.024232
34759	28226274	-2.294105	1.060529	9.709858	0.029770	0.075831	-0.002696	-0.005733	0.002650	0.024275
34760	28226299	-2.273685	0.951596	9.766717	0.032416	0.063457	-0.000094	-0.005682	0.002378	0.024417
34761	28226324	-2.451229	0.936943	9.644188	0.034644	0.060207	0.003624	-0.006126	0.002341	0.024111
34762	28226349	-2.277698	1.031470	9.754995	0.043531	0.050181	0.006221	-0.005693	0.002577	0.024388
34763	28226374	-2.246007	0.910609	9.680134	0.032514	0.046217	0.022905	-0.005614	0.002275	0.024201
34764	28226399	-2.302521	0.951841	9.704172	0.036119	0.045323	0.026888	-0.005755	0.002378	0.024261
34765	28226424	-2.289688	1.084267	9.620826	0.047269	0.040771	0.032316	-0.005723	0.002709	0.024053
34766	28226449	-2.198866	1.045622	9.644701	0.047557	0.028719	0.034782	-0.005496	0.002612	0.024112
34767	28226474	-2.235895	1.006094	9.551436	0.056060	0.021666	0.030333	-0.005589	0.002513	0.023879
34768	28226499	-2.208504	1.048384	9.638043	0.058918	0.021206	0.029163	-0.005521	0.002619	0.024095
34769	28226524	-2.215267	1.122716	9.634309	0.059420	0.017780	0.028796	-0.005538	0.002805	0.024086
34770	28226549	-2.154689	1.025139	9.595442	0.065669	0.019507	0.030226	-0.005386	0.002561	0.023989
34771	28226574	-2.175493	0.972773	9.619202	0.069220	0.016680	0.032076	-0.005438	0.002430	0.024048
34772	28226599	-2.245712	0.981090	9.604552	0.074103	0.009201	0.032370	-0.005614	0.002450	0.024012
34773	28226624	-2.241511	1.089649	9.651465	0.079235	0.001569	0.030717	-0.005604	0.002722	0.024129
34774	28226649	-2.226569	1.063318	9.701926	0.088839	-0.003886	0.030801	-0.005567	0.002655	0.024255
34775	28226674	-2.226688	1.024657	9.731060	0.093174	-0.006342	0.035986	-0.005567	0.002559	0.024328
34776	28226699	-2.206014	1.032843	9.741740	0.097516	-0.004052	0.036837	-0.005515	0.002579	0.024355
34777	28226724	-2.230885	1.003947	9.754934	0.105664	-0.001185	0.038716	-0.005577	0.002506	0.024388
34778	28226749	-2.209964	1.049653	9.675292	0.107612	-0.005138	0.037104	-0.005525	0.002621	0.024189
34779	28226774	-2.237414	1.026455	9.621996	0.116366	-0.010967	0.041948	-0.005594	0.002562	0.024055
34780	28226799	-2.215273	1.088389	9.618229	0.119112	-0.011387	0.043416	-0.005539	0.002717	0.024046
34781	28226824	-2.241244	1.157282	9.591853	0.120604	-0.019576	0.038473	-0.005604	0.002889	0.023980
34782	28226849	-2.238405	1.176719	9.548007	0.124717	-0.030731	0.038326	-0.005597	0.002938	0.023870
34783	28226874	-2.183317	1.168443	9.555990	0.132091	-0.035866	0.038327	-0.005460	0.002917	0.023890
34784	28226899	-2.091001	1.107999	9.525260	0.129882	-0.040016	0.031660	-0.005229	0.002766	0.023813
34785	28226924	-2.005478	1.068254	9.471964	0.135747	-0.043276	0.030018	-0.005015	0.002666	0.023680
34786	28226949	-1.951862	1.032344	9.497152	0.138563	-0.038250	0.035566	-0.004881	0.002577	0.023743
34787	28226974	-2.066465	1.007327	9.571500	0.145736	-0.041588	0.029594	-0.005167	0.002514	0.023929
34788	28226999	-2.026227	0.989926	9.453068	0.146274	-0.042228	0.033179	-0.005067	0.002470	0.023633
34789	28227024	-2.105809	1.275996	9.488572	0.144425	-0.042742	0.036614	-0.005266	0.003185	0.023722
34790	28227049	-2.160766	1.335274	9.456818	0.146320	-0.041190	0.039011	-0.005403	0.003334	0.023642
34791	28227074	-2.115328	1.458869	9.533046	0.136396	-0.046107	0.031404	-0.005290	0.003643	0.023833
34792	28227099	-2.108392	1.331207	9.448841	0.143746	-0.044119	0.021729	-0.005272	0.003324	0.023622
34793	28227124	-2.173770	1.383884	9.718980	0.144357	-0.035521	0.032714	-0.005436	0.003455	0.024298
34794	28227149	-2.303012	1.643840	9.759674	0.147828	-0.032108	0.028963	-0.005759	0.004105	0.024400
34795	28227174	-2.388504	1.614957	9.764833	0.154404	-0.032812	0.033283	-0.005972	0.004032	0.024413
34796	28227199	-2.533887	1.252803	9.823401	0.162034	-0.031599	0.031260	-0.006336	0.003127	0.024559
34797	28227224	-2.608696	1.033837	9.866549	0.162894	-0.042997	0.043818	-0.006523	0.002579	0.024667
34798	28227249	-2.499601	1.164602	9.859075	0.165211	-0.058356	0.061312	-0.006251	0.002906	0.024648
34799	28227274	-2.232944	1.363391	9.681633	0.167547	-0.058492	0.068066	-0.005584	0.003403	0.024204
34800	28227299	-2.038213	1.342077	9.487481	0.171323	-0.061521	0.068483	-0.005098	0.003350	0.023719
34801	28227324	-2.072673	1.274732	9.450003	0.167236	-0.050940	0.064610	-0.005183	0.003181	0.023625
34802	28227349	-2.176075	1.315846	9.508614	0.166763	-0.056341	0.071889	-0.005442	0.003284	0.023772
34803	28227374	-2.253181	1.421717	9.542162	0.163561	-0.061144	0.072430	-0.005635	0.003549	0.023856
34804	28227399	-2.219906	1.508493	9.513214	0.165011	-0.065754	0.077219	-0.005552	0.003766	0.023783
34805	28227424	-2.113719	1.471637	9.441311	0.159808	-0.059441	0.075170	-0.005286	0.003674	0.023604
34806	28227449	-2.006235	1.460544	9.445336	0.162111	-0.059645	0.069982	-0.005018	0.003646	0.023614
34807	28227474	-1.991140	1.345102	9.403729	0.161473	-0.060885	0.067717	-0.004980	0.003358	0.023510
34808	28227499	-2.013163	1.306659	9.386311	0.158943	-0.057128	0.068949	-0.005035	0.003262	0.023466
34809	28227524	-2.022977	1.276209	9.431414	0.156939	-0.065209	0.070383	-0.005060	0.003185	0.023579
34810	28227549	-2.228424	1.344749	9.516663	0.160684	-0.069225	0.061679	-0.005573	0.003357	0.023792
34811	28227574	-2.093253	1.365465	9.482205	0.167337	-0.072765	0.062181	-0.005236	0.003408	0.023706
34812	28227599	-2.066154	1.275493	9.620266	0.156090	-0.072569	0.065483	-0.005168	0.003184	0.024051
34813	28227624	-2.071519	1.263400	9.532428	0.154260	-0.073202	0.073381	-0.005181	0.003153	0.023831
34814	28227649	-2.136116	1.337842	9.519350	0.160514	-0.071283	0.067335	-0.005343	0.003339	0.023799
34815	28227674	-2.133386	1.318569	9.516617	0.158122	-0.071770	0.068444	-0.005336	0.003291	0.023792
34816	28227699	-2.057632	1.267697	9.497870	0.155857	-0.077888	0.073522	-0.005147	0.003164	0.023745
34817	28227724	-1.999839	1.303241	9.556550	0.156662	-0.078061	0.070395	-0.005002	0.003253	0.023892
34818	28227749	-2.009321	1.409257	9.550232	0.164455	-0.077420	0.063483	-0.005026	0.003518	0.023876
34819	28227774	-2.119484	1.423104	9.530276	0.170560	-0.078358	0.057122	-0.005301	0.003552	0.023826
34820	28227799	-2.108335	1.519374	9.539925	0.180279	-0.081743	0.052053	-0.005274	0.003793	0.023850
34821	28227824	-2.001371	1.357915	9.653813	0.170191	-0.074872	0.056748	-0.005006	0.003389	0.024135
34822	28227849	-1.937156	1.276115	9.818510	0.173618	-0.059238	0.064236	-0.004845	0.003185	0.024547
34823	28227874	-2.067743	1.291677	9.704126	0.182617	-0.066066	0.066188	-0.005172	0.003223	0.024261
34824	28227899	-2.096043	1.383329	9.504873	0.173835	-0.055747	0.069626	-0.005242	0.003453	0.023763
34825	28227924	-2.102882	1.309215	9.439471	0.179572	-0.055932	0.066467	-0.005259	0.003267	0.023599
34826	28227949	-2.045908	1.555781	9.377797	0.184868	-0.059578	0.056283	-0.005117	0.003884	0.023445
34827	28227974	-1.805317	1.435388	9.533141	0.182019	-0.037821	0.061341	-0.004515	0.003583	0.023833
34828	28227999	-1.914331	1.282719	9.523277	0.170116	-0.033717	0.063999	-0.004787	0.003201	0.023809
34829	28228024	-2.094469	1.339676	9.395674	0.178404	-0.040115	0.065380	-0.005238	0.003344	0.023490
34830	28228049	-2.094552	1.349111	9.447586	0.179785	-0.045007	0.068471	-0.005238	0.003367	0.023619
34831	28228074	-2.065551	1.358883	9.407717	0.177619	-0.045016	0.067514	-0.005165	0.003392	0.023520
34832	28228099	-1.956444	1.471798	9.382895	0.186214	-0.041339	0.064196	-0.004893	0.003674	0.023458
34833	28228124	-1.940916	1.451734	9.225890	0.174989	-0.045836	0.071204	-0.004854	0.003624	0.023065
34834	28228149	-1.869929	1.536550	8.988128	0.175309	-0.046048	0.065999	-0.004676	0.003836	0.022471
34835	28228174	-1.763596	1.529983	8.896393	0.158133	-0.039972	0.071830	-0.004410	0.003820	0.022242
34836	28228199	-1.471314	1.420330	8.768506	0.148588	-0.040130	0.076167	-0.003680	0.003546	0.021922
34837	28228224	-1.304593	1.390069	8.759200	0.137916	-0.022192	0.071561	-0.003262	0.003471	0.021899
34838	28228249	-1.267308	1.419035	8.734040	0.125615	-0.000674	0.069696	-0.003169	0.003544	0.021836
34839	28228274	-1.301467	1.618610	8.730685	0.121298	0.010651	0.060853	-0.003254	0.004043	0.021827
34840	28228299	-1.276167	1.966761	8.738511	0.112268	0.036758	0.048648	-0.003190	0.004914	0.021847
34841	28228324	-1.055554	2.019124	8.709543	0.104387	0.067882	0.041039	-0.002637	0.005045	0.021775
34842	28228349	-0.987090	1.859140	8.798167	0.101408	0.106384	0.028363	-0.002465	0.004645	0.021996
34843	28228374	-1.117435	1.642372	8.991563	0.106931	0.146049	0.011218	-0.002790	0.004103	0.022480
34844	28228399	-1.381759	1.344081	9.281714	0.105065	0.180116	-0.000387	-0.003449	0.003357	0.023206
34845	28228424	-1.633095	1.171659	9.403366	0.111777	0.191337	-0.001986	-0.004077	0.002926	0.023510
34846	28228449	-1.750191	1.299418	9.468912	0.120007	0.203146	-0.003318	-0.004369	0.003245	0.023674
34848	28228474	-1.866031	1.376204	9.542241	0.118531	0.215864	-0.003660	-0.004659	0.003437	0.023857
34850	28228499	-2.013441	1.438131	9.566306	0.125743	0.216281	-0.004496	-0.005027	0.003592	0.023918
34851	28228524	-2.161920	1.630935	9.532271	0.146285	0.214827	-0.021915	-0.005398	0.004073	0.023833
34852	28228549	-1.843818	1.430045	9.499827	0.152130	0.227523	-0.016589	-0.004603	0.003571	0.023752
34853	28228574	-1.779921	1.107372	9.666425	0.151941	0.240821	-0.013080	-0.004442	0.002764	0.024168
34854	28228599	-2.124383	1.189895	9.705095	0.156035	0.243343	-0.011942	-0.005304	0.002970	0.024265
34855	28228624	-2.408370	1.298240	9.819653	0.168535	0.237408	-0.008966	-0.006014	0.003240	0.024552
34856	28228649	-2.440082	1.311963	9.827651	0.169073	0.227492	-0.003240	-0.006093	0.003275	0.024572
34857	28228674	-2.406545	1.533718	9.769902	0.181846	0.222230	-0.002693	-0.006010	0.003829	0.024427
34858	28228699	-2.421373	1.633090	9.690408	0.181013	0.207804	-0.001742	-0.006047	0.004077	0.024229
34859	28228724	-2.481700	1.777760	9.652285	0.184487	0.203116	-0.005424	-0.006198	0.004439	0.024133
34860	28228749	-2.554447	1.805660	9.559221	0.184618	0.190370	-0.014202	-0.006380	0.004509	0.023901
34861	28228774	-2.405516	1.715170	9.467216	0.185953	0.172192	-0.018625	-0.006009	0.004283	0.023670
34862	28228799	-2.130582	1.552030	9.642417	0.176947	0.166619	-0.016607	-0.005321	0.003875	0.024108
34863	28228824	-2.211726	1.567463	9.573269	0.177300	0.163487	-0.017926	-0.005524	0.003913	0.023935
34864	28228849	-2.214245	1.648824	9.529626	0.183584	0.169531	-0.019579	-0.005530	0.004117	0.023826
34865	28228874	-2.196495	1.556553	9.543972	0.179408	0.164254	-0.021423	-0.005486	0.003886	0.023862
34866	28228899	-2.205949	1.611739	9.502915	0.172068	0.158465	-0.023614	-0.005510	0.004024	0.023759
34867	28228924	-2.125859	1.644945	9.452532	0.163905	0.154512	-0.022227	-0.005310	0.004108	0.023633
34868	28228949	-2.082946	1.722155	9.408917	0.167587	0.153883	-0.029854	-0.005203	0.004301	0.023524
34869	28228974	-2.177882	1.813005	9.411828	0.158015	0.156246	-0.033012	-0.005440	0.004528	0.023532
34870	28228999	-2.241330	1.828076	9.437108	0.155400	0.156409	-0.034669	-0.005599	0.004566	0.023595
34871	28229024	-2.184877	1.826561	9.461084	0.149317	0.151590	-0.043939	-0.005457	0.004562	0.023655
34872	28229049	-2.100723	1.781384	9.390486	0.144248	0.152156	-0.048746	-0.005247	0.004450	0.023478
34873	28229074	-2.107503	1.722519	9.322447	0.133392	0.151099	-0.052226	-0.005264	0.004303	0.023308
34874	28229099	-2.150388	1.694755	9.380872	0.133641	0.149582	-0.055987	-0.005371	0.004233	0.023454
34875	28229124	-2.267476	1.797860	9.417051	0.126551	0.147891	-0.059129	-0.005664	0.004491	0.023544
34876	28229149	-2.348841	1.773073	9.423559	0.118813	0.140087	-0.060126	-0.005868	0.004430	0.023561
34877	28229174	-2.262291	1.623014	9.445736	0.115012	0.131460	-0.061782	-0.005652	0.004055	0.023616
34878	28229199	-2.302494	1.529253	9.490610	0.111587	0.126478	-0.064442	-0.005752	0.003820	0.023728
34879	28229224	-2.332743	1.629608	9.520212	0.110711	0.115941	-0.069965	-0.005828	0.004071	0.023802
34880	28229249	-2.507423	1.716645	9.441918	0.101943	0.105406	-0.063947	-0.006265	0.004289	0.023606
34881	28229274	-2.528258	1.687555	9.489691	0.095028	0.091434	-0.063109	-0.006318	0.004217	0.023725
34882	28229299	-2.535538	1.537288	9.557019	0.090159	0.071993	-0.063321	-0.006336	0.003841	0.023894
34883	28229324	-2.502479	1.537298	9.562357	0.092791	0.062482	-0.055945	-0.006254	0.003841	0.023907
34884	28229349	-2.511954	1.553999	9.506549	0.090557	0.053608	-0.052629	-0.006278	0.003883	0.023767
34885	28229374	-2.441705	1.482514	9.483750	0.097148	0.036223	-0.042324	-0.006103	0.003704	0.023710
34886	28229399	-2.422516	1.530494	9.535772	0.092962	0.025775	-0.034814	-0.006055	0.003824	0.023840
34887	28229424	-2.432156	1.512579	9.534396	0.094071	0.011817	-0.036298	-0.006080	0.003779	0.023837
34888	28229449	-2.446919	1.621706	9.436321	0.088957	-0.000510	-0.035077	-0.006117	0.004052	0.023591
34889	28229474	-2.481293	1.510611	9.334836	0.088669	-0.018530	-0.029097	-0.006204	0.003774	0.023337
34890	28229499	-2.294010	1.643557	9.468395	0.086725	-0.031090	-0.031415	-0.005736	0.004107	0.023671
34891	28229524	-2.231762	1.575297	9.328534	0.083385	-0.042342	-0.034571	-0.005580	0.003936	0.023321
34892	28229549	-2.235703	1.538483	9.233987	0.084971	-0.049721	-0.040266	-0.005590	0.003844	0.023085
34893	28229574	-2.077101	1.592152	9.215646	0.074506	-0.061356	-0.048682	-0.005194	0.003979	0.023039
34894	28229599	-2.033876	1.728906	9.077782	0.069074	-0.068368	-0.052169	-0.005086	0.004321	0.022694
34895	28229624	-2.020075	1.697309	9.061734	0.064205	-0.064978	-0.058426	-0.005052	0.004242	0.022654
34896	28229649	-1.999325	1.842963	9.124731	0.061058	-0.072393	-0.071377	-0.005000	0.004606	0.022812
34897	28229674	-2.101024	1.824216	8.995597	0.044204	-0.076468	-0.069627	-0.005254	0.004560	0.022489
34898	28229699	-2.152141	1.832300	9.038162	0.037567	-0.071712	-0.073579	-0.005382	0.004580	0.022595
34899	28229724	-2.175604	1.969453	9.149004	0.016658	-0.083475	-0.082211	-0.005441	0.004924	0.022872
34900	28229749	-2.287156	1.971066	9.110355	0.006269	-0.082472	-0.079224	-0.005720	0.004928	0.022775
34901	28229774	-2.286162	1.959440	9.265941	-0.005083	-0.089440	-0.080498	-0.005718	0.004899	0.023164
34902	28229799	-2.426570	2.095646	9.282281	-0.017850	-0.097290	-0.084934	-0.006069	0.005240	0.023205
34903	28229824	-2.357673	2.057060	9.280881	-0.041848	-0.107805	-0.087309	-0.005897	0.005145	0.023201
34904	28229849	-2.208530	2.032911	9.121247	-0.069954	-0.115578	-0.089087	-0.005524	0.005085	0.022802
34905	28229874	-2.313152	2.057816	9.092018	-0.072309	-0.128499	-0.100595	-0.005786	0.005147	0.022729
34906	28229899	-2.173959	2.049519	9.090746	-0.103167	-0.141986	-0.103395	-0.005438	0.005127	0.022725
34907	28229924	-2.118793	1.905408	8.986546	-0.112347	-0.160530	-0.107533	-0.005301	0.004767	0.022465
34908	28229949	-1.884648	1.917564	9.035938	-0.132267	-0.160894	-0.125131	-0.004715	0.004798	0.022588
34909	28229974	-1.866963	1.775805	9.040797	-0.146821	-0.161459	-0.130017	-0.004671	0.004444	0.022600
34910	28229999	-1.875171	1.770384	9.014170	-0.162728	-0.168552	-0.143071	-0.004692	0.004431	0.022534
34911	28230024	-2.046026	1.656495	8.937887	-0.173378	-0.166285	-0.152147	-0.005119	0.004147	0.022343
34912	28230049	-1.887705	1.734397	9.064613	-0.194049	-0.176825	-0.160390	-0.004723	0.004342	0.022659
34913	28230074	-1.857001	1.699345	8.878274	-0.213112	-0.192779	-0.165549	-0.004647	0.004255	0.022193
34914	28230099	-1.698431	1.718713	8.837214	-0.223069	-0.184949	-0.172344	-0.004250	0.004304	0.022091
34915	28230124	-1.713834	1.733455	8.944986	-0.230908	-0.182140	-0.187415	-0.004289	0.004341	0.022360
34916	28230149	-1.807770	1.719402	9.031323	-0.248762	-0.175911	-0.195478	-0.004523	0.004307	0.022576
34917	28230174	-1.781514	1.709847	9.003401	-0.254393	-0.175603	-0.200546	-0.004458	0.004283	0.022506
34918	28230199	-1.708516	1.635723	8.959294	-0.266628	-0.171763	-0.207172	-0.004275	0.004098	0.022396
34919	28230224	-1.752316	1.600372	8.836782	-0.280398	-0.165118	-0.216393	-0.004384	0.004010	0.022090
34920	28230249	-1.696968	1.764095	8.845338	-0.311162	-0.169200	-0.212860	-0.004246	0.004420	0.022111
34921	28230274	-1.525488	1.773216	8.594094	-0.342228	-0.166295	-0.212598	-0.003817	0.004443	0.021483
34922	28230299	-1.126416	1.742822	8.239096	-0.373144	-0.153527	-0.225517	-0.002819	0.004367	0.020595
34923	28230324	-0.602487	1.777492	8.159729	-0.413621	-0.141357	-0.234230	-0.001509	0.004455	0.020397
34924	28230349	-0.920310	1.809959	7.941515	-0.421962	-0.112492	-0.246334	-0.002302	0.004536	0.019851
34925	28230374	-1.088440	1.963134	8.605588	-0.457591	-0.067540	-0.254068	-0.002721	0.004921	0.021511
34926	28230399	-1.647311	2.214717	9.076908	-0.455728	-0.041848	-0.265464	-0.004118	0.005551	0.022689
34927	28230424	-2.157196	2.567677	9.278647	-0.466652	-0.013070	-0.259379	-0.005391	0.006434	0.023193
34928	28230449	-2.181946	2.508684	9.219967	-0.485867	0.011523	-0.262879	-0.005452	0.006288	0.023046
34929	28230474	-2.269989	1.787470	9.281417	-0.471729	0.018698	-0.275591	-0.005673	0.004484	0.023201
34930	28230499	-2.888791	0.945792	9.933974	-0.430444	0.018971	-0.276746	-0.007221	0.002380	0.024834
34931	28230524	-3.079405	0.530850	10.439212	-0.411443	0.006290	-0.256127	-0.007698	0.001343	0.026097
34932	28230549	-2.927945	0.269033	10.899995	-0.379291	-0.017884	-0.217795	-0.007320	0.000687	0.027250
34933	28230574	-2.519778	0.395000	10.299369	-0.379266	-0.016478	-0.169995	-0.006300	0.001001	0.025748
34934	28230599	-1.750280	0.469225	9.541999	-0.353575	0.000477	-0.134987	-0.004375	0.001184	0.023854
34935	28230624	-2.122237	0.398212	9.485613	-0.320892	0.023049	-0.136521	-0.005305	0.001006	0.023714
34936	28230649	-2.171882	0.977349	9.850617	-0.294416	0.020280	-0.113831	-0.005429	0.002453	0.024626
34937	28230674	-1.539052	0.935942	9.108722	-0.324257	0.036849	-0.079453	-0.003846	0.002349	0.022771
34938	28230699	-1.158605	0.347114	8.714608	-0.300810	0.075784	-0.070997	-0.002894	0.000876	0.021786
34939	28230724	-1.424118	0.660140	9.300691	-0.263670	0.095710	-0.069222	-0.003557	0.001658	0.023252
34940	28230749	-1.968591	1.150145	9.633177	-0.289828	0.116603	-0.046429	-0.004918	0.002884	0.024083
34941	28230774	-1.774793	1.139155	9.266164	-0.289963	0.140156	-0.027101	-0.004433	0.002856	0.023165
34942	28230799	-1.623784	1.229621	9.007167	-0.267062	0.156108	-0.041999	-0.004055	0.003082	0.022518
34943	28230824	-1.846638	1.471870	8.995920	-0.250138	0.168787	-0.055005	-0.004612	0.003687	0.022490
34944	28230849	-1.520070	1.382523	8.945226	-0.258334	0.179493	-0.064482	-0.003795	0.003464	0.022363
34945	28230874	-1.175924	1.401817	8.546474	-0.269480	0.202626	-0.065261	-0.002934	0.003512	0.021366
34946	28230899	-1.057181	1.411752	8.458829	-0.291446	0.232306	-0.068906	-0.002637	0.003537	0.021147
34947	28230924	-1.262444	1.616493	8.565796	-0.324911	0.269218	-0.071536	-0.003149	0.004050	0.021414
34950	28230949	-1.407909	1.677079	8.913025	-0.333029	0.284503	-0.082605	-0.003511	0.004202	0.022282
34951	28230974	-1.318470	2.005807	8.586965	-0.361061	0.305946	-0.098787	-0.003287	0.005025	0.021466
34952	28230999	-1.515256	2.158709	8.571432	-0.381887	0.332411	-0.124095	-0.003778	0.005408	0.021428
34953	28231024	-1.637581	2.006111	8.916642	-0.382897	0.356163	-0.167395	-0.004083	0.005027	0.022291
34954	28231049	-1.921283	1.824492	9.304317	-0.375821	0.372089	-0.208244	-0.004791	0.004573	0.023261
34955	28231074	-2.030873	1.849391	9.594216	-0.362888	0.380334	-0.238664	-0.005064	0.004636	0.023986
34956	28231099	-1.685112	1.782670	9.015684	-0.390653	0.403948	-0.238070	-0.004200	0.004469	0.022539
34957	28231124	-1.499567	1.457705	9.081160	-0.422290	0.428975	-0.240532	-0.003736	0.003657	0.022703
34958	28231149	-1.597226	1.666783	9.109744	-0.428628	0.454094	-0.258249	-0.003979	0.004180	0.022774
34959	28231174	-1.695706	1.567015	9.318196	-0.422765	0.480120	-0.285482	-0.004224	0.003931	0.023296
34960	28231199	-1.978928	1.553638	9.599968	-0.389366	0.506473	-0.325568	-0.004931	0.003898	0.024001
34961	28231224	-2.700531	1.619599	10.020111	-0.385431	0.526501	-0.342159	-0.006733	0.004064	0.025053
34962	28231249	-2.480485	1.507592	10.096911	-0.403142	0.524359	-0.327964	-0.006183	0.003784	0.025244
34963	28231274	-2.046834	1.230389	9.528381	-0.430068	0.525931	-0.323582	-0.005100	0.003091	0.023823
34964	28231299	-2.073945	1.346224	9.474117	-0.422712	0.549878	-0.334531	-0.005167	0.003380	0.023687
34965	28231324	-1.735491	1.319341	9.635192	-0.447527	0.576529	-0.338753	-0.004320	0.003314	0.024089
34966	28231349	-1.371074	1.070545	9.207642	-0.429949	0.603151	-0.387605	-0.003409	0.002690	0.023020
34967	28231374	-1.488484	1.633639	9.154849	-0.372529	0.659424	-0.448920	-0.003700	0.004097	0.022888
34968	28231399	-1.762439	1.408346	9.429412	-0.363319	0.707911	-0.456874	-0.004383	0.003534	0.023576
34969	28231424	-1.666612	0.991327	9.424025	-0.346124	0.741470	-0.467691	-0.004143	0.002491	0.023563
34970	28231449	-1.616609	0.771475	9.707967	-0.307384	0.774068	-0.486122	-0.004017	0.001940	0.024273
34971	28231474	-1.797002	0.161448	9.869556	-0.247395	0.819725	-0.496322	-0.004467	0.000414	0.024678
34972	28231499	-2.025308	-0.109367	10.109066	-0.178404	0.874488	-0.483266	-0.005036	-0.000265	0.025278
34973	28231524	-1.383145	-0.287527	9.862730	-0.152831	0.912781	-0.432646	-0.003430	-0.000712	0.024661
34974	28231549	-1.294541	-0.361722	9.857340	-0.095198	0.999390	-0.385983	-0.003206	-0.000900	0.024647
34975	28231574	-1.285861	-0.027633	10.300132	-0.070822	1.065402	-0.347228	-0.003180	-0.000065	0.025755
34976	28231599	-1.142182	0.343176	9.766538	-0.024134	1.151568	-0.324892	-0.002820	0.000860	0.024420
34977	28231624	-1.180556	0.024752	9.563487	0.050350	1.249722	-0.310831	-0.002914	0.000062	0.023913
34978	28231649	-1.557716	0.041197	9.973044	0.150687	1.330725	-0.325321	-0.003853	0.000100	0.024939
34979	28231674	-1.734466	0.214374	9.646158	0.212538	1.413451	-0.318179	-0.004293	0.000531	0.024123
34980	28231699	-1.388707	0.263515	9.712814	0.232235	1.490931	-0.272478	-0.003426	0.000653	0.024289
34981	28231724	-1.224116	0.273024	9.424635	0.264585	1.572200	-0.240594	-0.003014	0.000676	0.023568
34982	28231749	-1.530417	0.077046	9.563442	0.333610	1.686366	-0.223264	-0.003776	0.000184	0.023917
34983	28231774	-2.109984	0.324388	10.080332	0.411608	1.796246	-0.223221	-0.005218	0.000799	0.025213
34984	28231799	-2.719056	0.274421	10.554258	0.490894	1.886975	-0.220239	-0.006735	0.000672	0.026402
34985	28231824	-2.926577	0.818176	10.542656	0.535161	1.949628	-0.202550	-0.007252	0.002030	0.026376
34986	28231849	-2.604343	1.113188	10.361473	0.539137	2.003397	-0.171527	-0.006445	0.002767	0.025922
34987	28231874	-2.557563	0.932172	10.204124	0.551621	2.068424	-0.151201	-0.006327	0.002314	0.025528
34988	28231899	-2.959737	0.880248	10.137437	0.593919	2.148214	-0.146383	-0.007331	0.002183	0.025365
34989	28231924	-3.753676	1.195469	10.479799	0.614827	2.216703	-0.164378	-0.009311	0.002970	0.026228
34990	28231949	-3.854825	1.021319	10.377686	0.657862	2.271600	-0.172715	-0.009563	0.002534	0.025974
34991	28231974	-3.594264	1.247114	9.940813	0.691400	2.341401	-0.186098	-0.008912	0.003098	0.024881
34992	28231999	-2.832346	1.312201	10.152963	0.716237	2.446096	-0.190418	-0.007002	0.003259	0.025407
34993	28232024	-2.964350	1.399837	10.632517	0.755627	2.580786	-0.207974	-0.007324	0.003476	0.026608
34994	28232049	-3.098474	1.416014	10.726501	0.787519	2.697393	-0.228286	-0.007655	0.003516	0.026846
34995	28232074	-2.679204	1.394622	9.840757	0.764020	2.779870	-0.253387	-0.006611	0.003465	0.024628
34996	28232099	-1.782388	1.775846	9.361953	0.760673	2.876884	-0.289494	-0.004370	0.004419	0.023425
34997	28232124	-0.045185	1.941266	9.565386	0.762508	3.012792	-0.340792	-0.000021	0.004830	0.023918
34998	28232149	1.529725	1.342778	9.841057	0.805093	3.216492	-0.413038	0.003925	0.003330	0.024590
34999	28232174	1.984127	0.821216	10.246590	0.895119	3.463821	-0.506026	0.005072	0.002021	0.025597
35000	28232199	1.630348	0.842783	9.684196	0.963587	3.766432	-0.572743	0.004191	0.002075	0.024193
35001	28232224	-0.902771	-0.071833	9.685162	1.007240	4.045699	-0.652039	-0.002135	-0.000208	0.024224
35002	28232249	-2.639018	0.110540	9.135547	0.991192	4.201186	-0.717687	-0.006477	0.000254	0.022873
35003	28232274	-2.953700	1.457369	9.432481	0.928937	4.326931	-0.783953	-0.007253	0.003623	0.023625
35004	28232299	-4.322492	1.420664	9.357574	0.810184	4.467125	-0.843124	-0.010672	0.003539	0.023457
35005	28232324	-6.569017	1.376906	11.142167	0.688777	4.513972	-0.906549	-0.016261	0.003437	0.027950
35006	28232349	4.126864	3.169131	9.659081	0.652156	4.566565	-1.082403	0.010465	0.007889	0.024095
35007	28232374	5.863127	2.907066	11.328267	0.579789	5.179410	-1.282745	0.014852	0.007223	0.028230
35008	28232399	1.225610	3.487080	15.165440	0.680114	5.487908	-1.539273	0.003341	0.008679	0.037899
35009	28232424	-4.130245	1.285118	11.960506	0.736452	5.686656	-1.665608	-0.010106	0.003206	0.029977
35010	28232449	-6.115131	-0.155907	10.740594	0.833230	5.815212	-1.779548	-0.015093	-0.000384	0.026961
35011	28232474	-5.977043	-1.710790	10.770447	1.021551	5.953680	-1.916081	-0.014752	-0.004276	0.027031
35012	28232499	-5.045614	-2.845333	15.787586	1.374813	6.119705	-2.144135	-0.012331	-0.007148	0.039552
35013	28232524	-4.035897	-3.710740	18.418027	1.828844	6.191715	-2.407628	-0.009761	-0.009352	0.046100
35014	28232549	-4.384830	-3.491184	15.348603	2.014175	6.330964	-2.636569	-0.010687	-0.008789	0.038435
35015	28232574	-2.667100	-0.569928	9.577295	1.860513	6.462329	-2.722648	-0.006479	-0.001458	0.023993
35016	28232599	-2.610306	-2.395272	7.607815	1.916169	6.735046	-2.815644	-0.006387	-0.006011	0.019059
35017	28232624	-1.347201	-2.823510	8.546954	2.395307	7.070417	-2.965470	-0.003205	-0.007111	0.021375
35018	28232649	-0.928889	-6.245264	8.960740	2.640092	7.474331	-3.184395	-0.002175	-0.015678	0.022371
35019	28232674	-7.346077	-6.582441	5.817794	2.468835	8.028717	-3.336735	-0.018287	-0.016425	0.014678
35020	28232699	-18.387712	-7.374512	1.201286	1.826963	8.936121	-3.384547	-0.046010	-0.018249	0.003475
35021	28232724	-28.419339	-7.401643	2.570857	0.975952	9.501360	-3.196340	-0.071039	-0.018229	0.007249
35022	28232749	-36.912823	-1.276382	4.080966	-0.324191	9.522988	-2.748679	-0.092162	-0.002870	0.011301
35023	28232774	-52.120996	4.961926	17.998659	-1.998117	9.348928	-2.213340	-0.129730	0.012879	0.046483
35024	28232799	-55.434282	6.345956	33.815689	-2.887157	8.435089	-2.018925	-0.137643	0.016522	0.085935
35025	28232824	-37.814071	10.350557	24.599914	-3.547107	7.264875	-2.324345	-0.093896	0.026425	0.062238
35026	28232849	-27.882921	10.286635	7.144332	-4.627457	6.866654	-2.810045	-0.069460	0.026066	0.018308
35027	28232874	-60.052557	6.693888	18.857481	-4.383095	7.399286	-3.253347	-0.149617	0.017607	0.048434
35028	28232899	-90.263699	4.304017	53.061108	-2.724118	6.845170	-3.531167	-0.224462	0.012209	0.134537
35029	28232924	-83.714620	8.175317	68.533671	-2.301721	4.801079	-3.584324	-0.208158	0.021868	0.172524
35030	28232949	-65.200634	7.676465	68.970063	-2.582620	2.350779	-3.495283	-0.162407	0.020459	0.172838
35031	28232974	-53.375130	3.355492	58.010607	-2.589826	0.777520	-3.470209	-0.133257	0.009437	0.145127
35032	28232999	-42.000672	0.564811	51.626668	-2.584662	0.295198	-3.451960	-0.104945	0.002282	0.129099
35033	28233024	-30.005662	-1.500669	46.078558	-2.845342	0.580162	-3.349978	-0.074944	-0.003028	0.115262
35034	28233049	-22.784062	-4.552164	33.168844	-2.483699	1.117136	-3.271716	-0.056889	-0.010890	0.083036
35035	28233074	-23.937944	-6.848190	19.527473	-2.025412	1.518580	-3.262607	-0.059821	-0.016753	0.048975
35036	28233099	-27.065936	-8.581835	17.035128	-1.922419	1.550055	-3.276292	-0.067669	-0.021075	0.042770
35037	28233124	-26.355060	-9.823641	14.243319	-1.801120	1.241590	-3.457879	-0.065937	-0.024194	0.035765
35038	28233149	-20.869467	-10.136336	8.617360	-1.836606	0.978640	-3.601587	-0.052260	-0.025056	0.021665
35039	28233174	-21.770897	-11.600993	4.595334	-2.024144	0.748203	-3.860800	-0.054555	-0.028710	0.011612
35040	28233199	-18.511842	-8.367702	3.402217	-1.797124	0.842440	-4.167081	-0.046379	-0.020659	0.008601
35041	28233224	-15.548856	-7.450548	4.757828	-1.744581	1.347610	-4.427729	-0.038954	-0.018385	0.012000
35042	28233249	-15.150361	-6.088589	6.940185	-1.591481	1.892427	-4.581324	-0.037921	-0.014970	0.017470
35043	28233274	-17.462819	-4.748596	6.928364	-1.525260	2.282090	-4.642459	-0.043675	-0.011585	0.017468
35044	28233299	-19.688867	-2.292256	8.419356	-1.357927	2.513415	-4.680119	-0.049188	-0.005407	0.021212
35045	28233324	-20.273012	-0.420864	10.209393	-1.247794	2.513400	-4.640418	-0.050607	-0.000718	0.025684
35046	28233349	-20.557224	1.897142	11.312933	-1.149949	2.474237	-4.591365	-0.051277	0.005078	0.028434
35047	28233374	-19.731575	4.490640	13.438613	-0.994080	2.493080	-4.507458	-0.049159	0.011546	0.033736
35048	28233399	-19.058620	6.333458	14.395324	-0.968181	2.553656	-4.373046	-0.047444	0.016137	0.036121
35049	28233424	-18.094199	8.177013	15.340052	-0.908919	2.682899	-4.181851	-0.044999	0.020722	0.038478
35052	28233449	-17.708850	9.844676	16.193570	-0.947814	2.778156	-3.947709	-0.044009	0.024877	0.040608
35053	28233474	-17.703064	11.443107	16.404265	-1.011467	2.795878	-3.683596	-0.043982	0.028863	0.041128
35054	28233499	-17.396599	13.129035	16.877876	-1.107256	2.757801	-3.436378	-0.043204	0.033067	0.042298
35055	28233524	-16.771212	14.390030	17.450403	-1.194750	2.686283	-3.223066	-0.041636	0.036208	0.043712
35056	28233549	-15.827368	15.708143	18.217392	-1.265489	2.655194	-3.056979	-0.039266	0.039493	0.045612
35057	28233574	-14.868147	16.598478	19.189124	-1.337676	2.654819	-2.916586	-0.036859	0.041711	0.048026
35058	28233599	-14.332555	17.116822	20.133503	-1.449553	2.646319	-2.770993	-0.035516	0.043007	0.050374
35059	28233624	-14.112499	17.321170	21.086957	-1.565988	2.606032	-2.603950	-0.034968	0.043520	0.052747
35060	28233649	-13.865311	17.111412	21.868373	-1.683506	2.505695	-2.424503	-0.034362	0.042998	0.054689
35061	28233674	-13.068747	16.558229	22.484484	-1.791891	2.374232	-2.225523	-0.032389	0.041612	0.056215
35062	28233699	-12.092830	15.661634	22.952862	-1.934003	2.241088	-1.999379	-0.029973	0.039368	0.057371
35063	28233724	-11.235639	14.760143	23.013945	-2.025803	2.112476	-1.775702	-0.027855	0.037108	0.057515
35064	28233749	-10.297203	13.762527	22.873991	-2.081774	1.967866	-1.555915	-0.025535	0.034605	0.057158
35065	28233774	-9.097844	12.697096	22.548420	-2.104234	1.810499	-1.360068	-0.022563	0.031929	0.056338
35066	28233799	-8.086228	11.942840	22.099060	-2.098918	1.648191	-1.183101	-0.020057	0.030032	0.055210
35067	28233824	-7.032874	11.253100	21.513403	-2.084560	1.509039	-0.996422	-0.017446	0.028295	0.053743
35068	28233849	-6.427712	10.381367	20.906853	-2.045651	1.370762	-0.819981	-0.015953	0.026103	0.052228
35069	28233874	-5.212646	9.598307	20.535492	-1.967426	1.217661	-0.650602	-0.012934	0.024133	0.051299
35070	28233899	-4.558244	9.052292	19.679887	-1.876682	1.079839	-0.489711	-0.011315	0.022753	0.049162
35071	28233924	-3.881989	8.626524	19.025782	-1.770355	0.965045	-0.337233	-0.009639	0.021676	0.047528
35072	28233949	-3.158144	8.222650	18.059326	-1.666236	0.838669	-0.187837	-0.007843	0.020652	0.045114
35073	28233974	-2.443342	7.959783	16.942734	-1.557548	0.715526	-0.046395	-0.006069	0.019982	0.042323
35074	28233999	-1.649064	7.774326	16.050223	-1.442594	0.595937	0.091647	-0.004095	0.019508	0.040093
35075	28234024	-0.934625	7.619496	15.161546	-1.342864	0.493320	0.224593	-0.002319	0.019112	0.037873
35076	28234049	-0.233900	7.519433	14.241187	-1.231111	0.398973	0.357004	-0.000575	0.018853	0.035574
35077	28234074	0.487486	7.504608	13.431590	-1.136229	0.308481	0.487201	0.001220	0.018810	0.033552
35078	28234099	0.935966	7.535067	12.584693	-1.034253	0.226164	0.603873	0.002335	0.018880	0.031437
35079	28234124	1.204296	7.448717	12.160284	-0.943704	0.158288	0.727409	0.003000	0.018660	0.030378
35080	28234149	1.682746	7.506030	11.508971	-0.843966	0.079033	0.852545	0.004190	0.018800	0.028752
35081	28234174	1.945790	7.495391	11.044940	-0.735414	0.012633	0.986639	0.004842	0.018770	0.027595
35082	28234199	2.284071	7.489511	10.760486	-0.644981	-0.050423	1.126189	0.005682	0.018753	0.026886
35083	28234224	2.673713	7.416711	10.317602	-0.575149	-0.130782	1.263765	0.006651	0.018571	0.025782
35084	28234249	3.108986	7.369047	9.798959	-0.510176	-0.202677	1.390941	0.007734	0.018452	0.024488
35085	28234274	3.529208	7.278849	9.228354	-0.464693	-0.271490	1.508036	0.008781	0.018227	0.023063
35086	28234299	3.888256	7.060178	8.804903	-0.433812	-0.340207	1.613587	0.009676	0.017682	0.022007
35087	28234324	4.166347	6.818731	8.208365	-0.409158	-0.399076	1.716754	0.010369	0.017080	0.020517
35088	28234349	4.439972	6.538385	7.732792	-0.389839	-0.464391	1.805061	0.011052	0.016380	0.019330
35089	28234374	4.651224	6.225899	7.390060	-0.368295	-0.523531	1.883148	0.011579	0.015601	0.018476
35090	28234399	4.920273	5.847464	6.997926	-0.353417	-0.583913	1.958481	0.012252	0.014656	0.017497
35091	28234424	5.087550	5.491072	6.604467	-0.334520	-0.642071	2.026312	0.012671	0.013767	0.016516
35092	28234449	5.296053	5.030443	6.144214	-0.316690	-0.687465	2.092424	0.013194	0.012617	0.015367
35093	28234474	5.397887	4.670484	5.946152	-0.292014	-0.724141	2.150042	0.013450	0.011718	0.014873
35094	28234499	5.387192	4.272669	5.628342	-0.276468	-0.779937	2.200437	0.013425	0.010724	0.014080
35095	28234524	5.493069	3.809844	5.402053	-0.244706	-0.834068	2.230819	0.013692	0.009567	0.013517
35096	28234549	5.597380	3.421881	5.350287	-0.209488	-0.883941	2.263788	0.013954	0.008598	0.013389
35097	28234574	5.716918	3.091887	5.274781	-0.172986	-0.937684	2.291814	0.014255	0.007773	0.013202
35098	28234599	5.822497	2.852250	5.319275	-0.130514	-0.987822	2.304442	0.014519	0.007175	0.013315
35099	28234624	5.924063	2.678574	5.381237	-0.093386	-1.035989	2.324679	0.014773	0.006741	0.013471
35100	28234649	6.010526	2.551741	5.422094	-0.057617	-1.091525	2.327837	0.014989	0.006424	0.013575
35101	28234674	6.007709	2.454057	5.421764	-0.025812	-1.143474	2.333590	0.014982	0.006179	0.013576
35102	28234699	6.063936	2.259923	5.434438	-0.002852	-1.198749	2.331812	0.015123	0.005694	0.013609
35103	28234724	6.048186	2.430018	5.260799	0.034346	-1.274482	2.315217	0.015082	0.006118	0.013176
35104	28234749	6.402926	2.026818	5.242441	0.065640	-1.335252	2.314839	0.015971	0.005112	0.013133
35105	28234774	6.667283	1.958984	5.311502	0.100076	-1.385626	2.306878	0.016631	0.004944	0.013308
35106	28234799	6.734950	1.972773	5.274271	0.122172	-1.431790	2.300875	0.016799	0.004978	0.013217
35107	28234824	6.668912	1.935931	5.199604	0.145373	-1.500843	2.289742	0.016634	0.004885	0.013031
35108	28234849	6.657946	1.969042	5.191770	0.181947	-1.578863	2.276851	0.016605	0.004967	0.013013
35109	28234874	6.739305	1.977292	5.182523	0.204707	-1.656651	2.265232	0.016807	0.004988	0.012992
35110	28234899	6.812467	1.993952	5.142704	0.232038	-1.730896	2.253460	0.016989	0.005029	0.012895
35111	28234924	6.815426	2.009230	5.088186	0.258707	-1.807697	2.241046	0.016996	0.005067	0.012761
35112	28234949	6.798049	1.923488	4.856480	0.278780	-1.891871	2.230596	0.016953	0.004852	0.012183
35113	28234974	6.859278	1.826869	4.564923	0.305582	-1.978243	2.218071	0.017107	0.004610	0.011456
35114	28234999	6.949798	1.690944	4.132318	0.325421	-2.057857	2.206750	0.017336	0.004271	0.010377
35115	28235024	7.136605	1.461365	3.692718	0.358825	-2.131381	2.185361	0.017807	0.003698	0.009281
35116	28235049	7.309595	1.252389	3.263886	0.388003	-2.198213	2.166749	0.018243	0.003176	0.008211
35117	28235074	7.584699	0.937466	2.805367	0.422445	-2.266167	2.153396	0.018935	0.002391	0.007068
35118	28235099	7.550600	0.661152	2.372179	0.456395	-2.324468	2.128994	0.018855	0.001700	0.005986
35119	28235124	7.534619	0.564514	2.080577	0.512074	-2.362970	2.090653	0.018817	0.001457	0.005258
35120	28235149	7.517158	0.345286	1.817710	0.553341	-2.418403	2.057860	0.018777	0.000908	0.004602
35121	28235174	7.445485	0.130031	1.621553	0.608228	-2.473554	2.019164	0.018600	0.000369	0.004112
35122	28235199	7.493502	-0.073568	1.590273	0.647825	-2.520297	1.978445	0.018721	-0.000141	0.004035
35123	28235224	7.400911	-0.200045	1.561931	0.692615	-2.559528	1.944050	0.018491	-0.000459	0.003964
35124	28235249	7.248907	-0.251341	1.614697	0.750036	-2.614424	1.902219	0.018110	-0.000589	0.004095
35125	28235274	7.321536	-0.311062	1.436435	0.796446	-2.660466	1.878392	0.018294	-0.000738	0.003651
35126	28235299	7.156199	-0.521028	1.971740	0.832895	-2.669475	1.852107	0.017877	-0.001266	0.004988
35127	28235324	6.770876	0.286702	2.036423	0.834333	-2.717098	1.810911	0.016908	0.000750	0.005149
35128	28235349	6.554292	0.575986	1.662505	0.841945	-2.779544	1.758137	0.016368	0.001472	0.004215
35129	28235374	6.686075	0.670061	1.840984	0.889152	-2.838301	1.699261	0.016695	0.001705	0.004664
35130	28235399	6.377920	0.606822	2.167580	0.890119	-2.909446	1.663389	0.015922	0.001544	0.005479
35131	28235424	6.035637	0.684341	2.440366	0.895999	-2.963435	1.634220	0.015063	0.001735	0.006159
35132	28235449	5.865546	0.746759	2.732167	0.908233	-3.005553	1.632141	0.014634	0.001889	0.006888
35133	28235474	5.106482	1.169702	3.154189	0.926040	-3.017938	1.626652	0.012730	0.002941	0.007937
35134	28235499	4.707635	-0.285284	4.031022	1.017002	-3.086731	1.620963	0.011732	-0.000702	0.010122
35135	28235524	5.179934	1.640484	2.795865	0.920645	-3.191936	1.605832	0.012914	0.004119	0.007046
35136	28235549	4.705684	1.479910	3.139075	0.974988	-3.217573	1.543678	0.011725	0.003713	0.007899
35137	28235574	4.089701	1.607445	4.051683	1.000238	-3.260981	1.515816	0.010175	0.004025	0.010176
35138	28235599	3.732313	1.592784	4.332045	0.989596	-3.312097	1.523046	0.009278	0.003986	0.010874
35139	28235624	3.383953	1.735889	4.369588	1.000504	-3.382952	1.530202	0.008405	0.004342	0.010965
35140	28235649	3.159532	1.831034	4.348565	1.017192	-3.446976	1.531971	0.007843	0.004579	0.010911
35141	28235674	2.955316	1.759276	4.409373	1.038401	-3.506083	1.537188	0.007331	0.004398	0.011061
35142	28235699	2.678507	1.803576	4.346798	1.060040	-3.565616	1.548070	0.006639	0.004507	0.010903
35143	28235724	2.343863	1.815060	4.240308	1.081686	-3.619922	1.556876	0.005803	0.004535	0.010633
35144	28235749	2.172071	1.731132	4.194073	1.098513	-3.680352	1.583695	0.005373	0.004324	0.010516
35145	28235774	1.717679	2.190255	4.072546	1.116048	-3.728504	1.591597	0.004236	0.005470	0.010209
35146	28235799	1.463392	1.722245	4.094833	1.128897	-3.769028	1.623903	0.003601	0.004298	0.010260
35147	28235824	1.369541	2.100016	3.560756	1.161222	-3.828587	1.619851	0.003371	0.005244	0.008926
35148	28235849	1.099748	2.075132	3.245708	1.173612	-3.863476	1.627796	0.002700	0.005181	0.008135
35149	28235874	1.015759	1.772906	3.094136	1.168181	-3.893649	1.653963	0.002493	0.004426	0.007754
35150	28235899	0.826357	1.759098	2.764253	1.174343	-3.917663	1.662936	0.002023	0.004392	0.006927
35151	28235924	0.623248	1.737033	2.404817	1.182206	-3.954728	1.676139	0.001519	0.004337	0.006026
35152	28235949	0.354582	1.567200	2.218125	1.188483	-3.969762	1.700048	0.000851	0.003912	0.005555
35155	28235974	0.330697	1.441837	2.224286	1.190865	-3.994299	1.706851	0.000791	0.003598	0.005570
35156	28235999	0.133937	1.454258	2.217213	1.206974	-4.014816	1.712172	0.000299	0.003628	0.005550
35157	28236024	-0.252389	1.268218	2.313555	1.230609	-4.017864	1.719359	-0.000667	0.003160	0.005785
35158	28236049	-0.494107	1.093290	2.368834	1.239725	-4.022125	1.740453	-0.001271	0.002721	0.005920
35159	28236074	-0.713003	1.052307	2.314057	1.247370	-4.031651	1.747925	-0.001817	0.002618	0.005780
35160	28236099	-0.905932	1.051099	2.257987	1.275159	-4.035774	1.750404	-0.002299	0.002614	0.005638
35161	28236124	-1.123708	1.052421	2.293878	1.295972	-4.039721	1.760153	-0.002844	0.002616	0.005725
35162	28236149	-1.322000	0.988085	2.212361	1.302045	-4.045412	1.769988	-0.003338	0.002454	0.005518
35163	28236174	-1.575076	1.116511	2.106201	1.312738	-4.049216	1.775774	-0.003970	0.002774	0.005250
35164	28236199	-1.842799	1.000877	2.116330	1.317856	-4.055064	1.792252	-0.004639	0.002483	0.005271
35165	28236224	-2.120718	1.090698	2.053974	1.319234	-4.057594	1.800942	-0.005334	0.002706	0.005112
35166	28236249	-2.316176	1.040284	1.929999	1.329066	-4.057103	1.818877	-0.005821	0.002580	0.004800
35167	28236274	-2.521111	1.044965	1.798222	1.325503	-4.045483	1.833145	-0.006331	0.002591	0.004468
35168	28236299	-2.720371	1.005884	1.597133	1.327695	-4.034990	1.844464	-0.006827	0.002492	0.003963
35169	28236324	-2.887128	0.890824	1.439661	1.341258	-4.016193	1.853967	-0.007241	0.002204	0.003567
35170	28236349	-3.066236	0.793342	1.396681	1.345281	-3.990903	1.864695	-0.007687	0.001960	0.003457
35171	28236374	-3.341852	0.734362	1.348365	1.357132	-3.963230	1.874238	-0.008375	0.001811	0.003333
35172	28236399	-3.577505	0.631454	1.294770	1.366940	-3.934635	1.886463	-0.008963	0.001552	0.003196
35173	28236424	-3.814492	0.520244	1.229012	1.374626	-3.903835	1.897102	-0.009554	0.001273	0.003028
35174	28236449	-4.080326	0.423078	1.102229	1.392852	-3.867225	1.908193	-0.010216	0.001029	0.002708
35175	28236474	-4.275866	0.342292	1.006105	1.405101	-3.834001	1.916969	-0.010704	0.000826	0.002465
35176	28236499	-4.507562	0.191117	0.957562	1.423642	-3.797916	1.934848	-0.011281	0.000446	0.002341
35177	28236524	-4.766700	0.090832	0.911791	1.442263	-3.752906	1.948254	-0.011928	0.000194	0.002224
35178	28236549	-5.006795	-0.022255	0.989738	1.443645	-3.711112	1.961085	-0.012528	-0.000091	0.002416
35179	28236574	-5.294121	-0.136945	1.111612	1.453038	-3.668873	1.971019	-0.013247	-0.000380	0.002718
35180	28236599	-5.665647	-0.304396	1.362100	1.448911	-3.624845	1.981039	-0.014177	-0.000802	0.003340
35181	28236624	-6.107082	-0.423308	1.539580	1.436025	-3.581214	1.989537	-0.015282	-0.001103	0.003779
35182	28236649	-6.512806	-0.621800	1.650494	1.425953	-3.540940	1.993679	-0.016296	-0.001602	0.004051
35183	28236674	-6.927137	-1.003557	1.804523	1.413194	-3.497296	1.995011	-0.017331	-0.002560	0.004431
35184	28236699	-7.345653	-1.425198	1.969099	1.400914	-3.458441	1.985953	-0.018376	-0.003617	0.004837
35185	28236724	-7.729850	-1.936225	2.114848	1.389982	-3.406878	1.987498	-0.019335	-0.004898	0.005196
35186	28236749	-8.131975	-2.520202	2.248232	1.382385	-3.359326	1.971990	-0.020338	-0.006360	0.005524
35187	28236774	-8.632122	-3.234840	2.377195	1.381537	-3.308435	1.951961	-0.021585	-0.008150	0.005840
35188	28236799	-9.199659	-4.016538	2.408781	1.374754	-3.256797	1.923936	-0.022999	-0.010107	0.005911
35189	28236824	-9.739391	-4.878954	2.321870	1.362423	-3.202980	1.888170	-0.024343	-0.012265	0.005686
35190	28236849	-10.197550	-5.721615	2.103397	1.353767	-3.147001	1.837110	-0.025481	-0.014371	0.005134
35191	28236874	-10.523401	-6.728145	1.884084	1.333407	-3.087909	1.766848	-0.026289	-0.016886	0.004581
35192	28236899	-10.937788	-7.558582	1.703053	1.302490	-3.010926	1.676308	-0.027320	-0.018961	0.004124
35193	28236924	-11.372547	-8.834449	1.722496	1.253231	-2.925905	1.573136	-0.028403	-0.022149	0.004168
35194	28236949	-11.894209	-9.687021	1.558280	1.209616	-2.839730	1.446560	-0.029705	-0.024277	0.003754
35195	28236974	-12.498287	-10.756839	1.679402	1.136635	-2.764403	1.305214	-0.031216	-0.026949	0.004052
35196	28236999	-12.939211	-11.637541	1.726976	1.066015	-2.691252	1.129909	-0.032321	-0.029145	0.004170
35197	28237024	-13.346805	-12.626823	2.006492	0.985260	-2.586269	0.956533	-0.033345	-0.031613	0.004869
35198	28237049	-13.854168	-13.296695	2.331372	0.893010	-2.484337	0.764760	-0.034621	-0.033281	0.005684
35199	28237074	-14.346891	-14.035798	2.710333	0.808303	-2.395452	0.561678	-0.035863	-0.035121	0.006633
35200	28237099	-14.861803	-14.567711	3.277513	0.724215	-2.311735	0.360123	-0.037162	-0.036443	0.008053
35201	28237124	-15.488430	-14.889686	4.030307	0.633181	-2.232324	0.158136	-0.038742	-0.037240	0.009938
35202	28237149	-16.049538	-15.015633	4.633532	0.540792	-2.149992	-0.039408	-0.040157	-0.037545	0.011451
35203	28237174	-16.419257	-14.839174	4.942410	0.447903	-2.073872	-0.225890	-0.041090	-0.037093	0.012229
35204	28237199	-17.489268	-14.131188	5.565217	0.358898	-2.007025	-0.403814	-0.043776	-0.035312	0.013787
35205	28237224	-18.141562	-13.194951	5.839571	0.279871	-1.946879	-0.581769	-0.045413	-0.032959	0.014477
35206	28237249	-18.337241	-12.455402	5.722167	0.194597	-1.883156	-0.759379	-0.045906	-0.031098	0.014190
35207	28237274	-18.602930	-11.568585	5.607861	0.093640	-1.823353	-0.917840	-0.046572	-0.028870	0.013910
35208	28237299	-18.936552	-10.266838	5.304658	-0.026350	-1.760219	-1.051214	-0.047404	-0.025604	0.013158
35209	28237324	-19.179532	-8.730690	5.248490	-0.146340	-1.692165	-1.162667	-0.048008	-0.021755	0.013024
35210	28237349	-19.441058	-7.263527	4.899244	-0.270793	-1.618384	-1.248482	-0.048656	-0.018079	0.012156
35211	28237374	-19.708626	-5.864415	4.676505	-0.382042	-1.532331	-1.309264	-0.049318	-0.014575	0.011604
35212	28237399	-19.848677	-4.564307	4.101954	-0.495999	-1.444031	-1.345408	-0.049659	-0.011321	0.010172
35213	28237424	-19.927789	-3.203718	3.498583	-0.603185	-1.346914	-1.351851	-0.049848	-0.007919	0.008669
35214	28237449	-19.921869	-1.944903	2.891029	-0.709500	-1.230909	-1.329799	-0.049824	-0.004773	0.007155
35215	28237474	-19.668449	-0.748730	2.083676	-0.812657	-1.127807	-1.295392	-0.049181	-0.001787	0.005142
35216	28237499	-19.715992	0.561919	0.868190	-0.904206	-0.984948	-1.239034	-0.049290	0.001484	0.002108
35217	28237524	-19.606901	1.530718	0.160131	-0.987635	-0.847716	-1.165756	-0.049012	0.003899	0.000344
35218	28237549	-19.512903	2.378953	-1.063671	-1.049443	-0.700811	-1.083928	-0.048772	0.006010	-0.002710
35219	28237574	-19.430526	3.315908	-2.092565	-1.106959	-0.533551	-0.987816	-0.048563	0.008342	-0.005275
35220	28237599	-19.242324	4.094309	-3.042347	-1.149409	-0.363675	-0.882040	-0.048091	0.010278	-0.007642
35221	28237624	-19.058720	4.815732	-3.875073	-1.176780	-0.177938	-0.776600	-0.047633	0.012071	-0.009716
35222	28237649	-18.836945	5.402080	-4.633804	-1.192807	0.013949	-0.674153	-0.047081	0.013528	-0.011604
35223	28237674	-18.701339	6.000279	-5.588162	-1.200841	0.219281	-0.565632	-0.046747	0.015013	-0.013980
35224	28237699	-18.440864	6.396512	-5.948377	-1.183507	0.418882	-0.441319	-0.046101	0.015995	-0.014870
35225	28237724	-18.111880	6.772779	-6.109295	-1.123717	0.600633	-0.341775	-0.045284	0.016930	-0.015263
35226	28237749	-17.945287	7.266822	-5.713907	-1.030252	0.796874	-0.232697	-0.044872	0.018162	-0.014263
35227	28237774	-17.665092	7.738331	-4.465807	-0.905861	0.972926	-0.121525	-0.044173	0.019340	-0.011133
35228	28237799	-17.613781	8.101391	-3.349909	-0.766695	1.128054	0.002448	-0.044046	0.020245	-0.008332
35229	28237824	-18.701348	11.671950	-0.940319	-1.501375	1.286726	0.165191	-0.046763	0.029166	-0.002330
35230	28237849	-26.343079	28.478310	11.594473	-6.227552	1.363547	0.393371	-0.065844	0.071387	0.028543
35231	28237874	-63.723033	53.673747	76.631076	-10.195553	0.303132	1.771251	-0.159536	0.136259	0.189910
35232	28237899	-99.561732	-23.983246	110.707449	-4.276143	-1.202353	0.642804	-0.249273	-0.058679	0.276710
35233	28237924	-118.110617	-33.829579	101.275540	1.877925	-1.676394	-2.646441	-0.296085	-0.084188	0.252371
35234	28237949	-62.348985	-3.763397	78.243292	-1.751210	-1.751043	-1.810795	-0.156320	-0.008627	0.195286
35235	28237974	-19.064188	-19.227808	40.813687	-5.580241	-2.234118	-1.454919	-0.048032	-0.047270	0.102232
35236	28237999	1.405495	-12.109469	-33.003866	-1.057524	-1.076173	-2.504007	0.003530	-0.030394	-0.082465
35237	28238024	13.752164	2.930237	-15.166738	0.354990	-0.913850	-2.416627	0.034446	0.007238	-0.037874
35238	28238049	13.406066	5.386063	-4.008067	-0.268518	-2.671027	-1.856212	0.033579	0.013384	-0.009913
35239	28238074	7.493537	-3.336686	2.778098	-0.244273	-4.034500	-1.340996	0.018684	-0.008371	0.007042
35240	28238099	2.454894	-0.593307	10.859915	-0.422620	-4.077473	-1.001786	0.005997	-0.001476	0.027181
35241	28238124	-2.356134	-0.009361	26.464882	-0.560357	-3.147329	-0.482158	-0.006151	0.000027	0.066138
35242	28238149	-6.727196	2.826753	37.033410	-0.908828	-2.449870	-0.208386	-0.017100	0.007176	0.092523
35243	28238174	0.896801	3.232589	23.365836	-1.218799	-1.993053	0.004062	0.002096	0.008170	0.058408
35244	28238199	5.856574	-8.035350	4.296537	-1.220108	-1.403862	0.121275	0.014626	-0.020070	0.010798
35245	28238224	9.845027	-13.521133	-3.235457	-0.545711	-1.021176	0.013694	0.024623	-0.033808	-0.008034
35246	28238249	17.254957	-13.434399	-9.436691	0.006253	-0.946540	-0.010277	0.043165	-0.033586	-0.023541
35247	28238274	21.165019	-9.007652	-10.121023	0.018577	-0.696810	0.146586	0.052939	-0.022509	-0.025257
35248	28238299	19.406032	-5.002251	-4.590940	-0.091477	-0.358452	0.428088	0.048527	-0.012481	-0.011454
35249	28238324	11.891843	1.018792	-0.544618	-0.227974	0.198616	0.495704	0.029728	0.002565	-0.001370
35250	28238349	5.364361	4.807764	5.604671	-0.340989	0.718674	0.491962	0.013416	0.012034	0.013995
35251	28238374	1.089341	6.055628	9.185183	-0.527182	0.932348	0.444858	0.002742	0.015156	0.022950
35252	28238399	-1.800965	6.593330	10.250236	-0.574792	0.986252	0.338975	-0.004478	0.016500	0.025619
35253	28238424	-3.415933	6.103468	11.077579	-0.543770	0.976757	0.207408	-0.008510	0.015275	0.027694
35256	28238449	-3.451445	4.306930	10.834473	-0.494804	0.986737	0.079437	-0.008596	0.010783	0.027090
35257	28238474	-2.049095	2.920095	9.600133	-0.452455	1.050000	-0.040719	-0.005091	0.007314	0.024003
35258	28238499	-1.416102	2.105159	8.552667	-0.378616	1.107140	-0.134765	-0.003510	0.005274	0.021384
35259	28238524	-2.010735	1.868683	8.144868	-0.377637	1.100138	-0.178218	-0.004998	0.004682	0.020367
35260	28238549	-3.294322	2.226975	8.824892	-0.418890	1.061748	-0.194694	-0.008205	0.005581	0.022070
35261	28238574	-4.261392	2.598628	9.921578	-0.449473	0.967342	-0.197420	-0.010622	0.006513	0.024813
35262	28238599	-5.026967	2.349761	10.686415	-0.490809	0.874535	-0.232066	-0.012536	0.005894	0.026726
35263	28238624	-5.930662	2.141613	11.540412	-0.481965	0.779528	-0.261778	-0.014797	0.005376	0.028862
35264	28238649	-6.220849	1.078939	12.380018	-0.460543	0.677948	-0.267077	-0.015525	0.002720	0.030962
35265	28238674	-6.694240	0.225352	13.224161	-0.412901	0.558940	-0.238691	-0.016712	0.000585	0.033072
35266	28238699	-6.782816	-0.544856	13.487559	-0.382853	0.448692	-0.183307	-0.016938	-0.001342	0.033729
35267	28238724	-6.746624	-1.324486	14.064853	-0.326175	0.333038	-0.111499	-0.016852	-0.003295	0.035170
35268	28238749	-6.236353	-0.564223	13.107283	-0.252327	0.175188	-0.069073	-0.015584	-0.001399	0.032772
35269	28238774	-5.155845	-0.998956	12.264461	-0.240047	0.109750	0.023556	-0.012885	-0.002489	0.030664
35270	28238799	-3.871951	-0.555037	11.590984	-0.241119	0.035277	0.111198	-0.009678	-0.001380	0.028978
35271	28238824	-2.922980	0.236037	10.530025	-0.229047	0.002225	0.145653	-0.007307	0.000596	0.026325
35272	28238849	-2.410859	1.067193	10.131460	-0.192982	-0.013085	0.139010	-0.006028	0.002673	0.025328
35273	28238874	-1.959694	0.746735	9.714332	-0.195299	-0.026275	0.136699	-0.004900	0.001872	0.024285
35274	28238899	-1.840540	1.115743	9.654424	-0.148848	-0.019944	0.103667	-0.004602	0.002793	0.024135
35275	28238924	-1.853909	0.923399	9.929125	-0.132439	0.002362	0.085884	-0.004635	0.002312	0.024822
35276	28238949	-1.883160	0.804793	9.993885	-0.100091	0.031124	0.085177	-0.004707	0.002015	0.024985
35277	28238974	-1.692106	0.847898	10.249517	-0.112233	0.037789	0.084205	-0.004229	0.002123	0.025624
35278	28238999	-1.972028	1.142336	9.877891	-0.069597	0.042331	0.063868	-0.004929	0.002858	0.024695
35279	28239024	-1.754788	1.455244	9.740740	-0.086857	0.071976	0.053987	-0.004385	0.003640	0.024352
35280	28239049	-1.741610	1.446890	9.409527	-0.066608	0.078098	0.014648	-0.004352	0.003619	0.023524
35281	28239074	-1.748581	1.390384	9.423989	-0.073671	0.085820	-0.001869	-0.004369	0.003478	0.023560
35282	28239099	-1.946222	1.215273	9.545636	-0.067241	0.086351	-0.035420	-0.004863	0.003040	0.023864
35283	28239124	-2.386112	1.241021	9.671825	-0.001618	0.098987	-0.089879	-0.005962	0.003103	0.024180
35284	28239149	-2.719405	0.864331	9.951052	0.000024	0.106177	-0.114627	-0.006795	0.002162	0.024879
35285	28239174	-2.985016	0.438429	10.125054	0.037971	0.083713	-0.117336	-0.007460	0.001096	0.025313
35286	28239199	-3.027836	0.020127	10.478774	0.023820	0.062023	-0.076558	-0.007568	0.000050	0.026198
35287	28239224	-3.296903	-0.092820	10.516799	0.016196	0.038017	-0.016272	-0.008241	-0.000232	0.026292
35288	28239249	-3.229332	0.552549	10.931331	0.029822	0.025937	0.004509	-0.008072	0.001380	0.027329
35289	28239274	-3.355967	0.362686	10.137867	0.039808	0.000089	0.018354	-0.008390	0.000905	0.025345
35290	28239299	-3.071107	1.224947	10.332427	0.068614	-0.020465	0.012961	-0.007678	0.003060	0.025831
35291	28239324	-2.927131	0.303706	10.066146	0.019319	-0.067261	0.061278	-0.007320	0.000758	0.025165
35292	28239349	-2.555636	0.662164	9.909225	0.034292	-0.094771	0.075252	-0.006392	0.001654	0.024772
35293	28239374	-2.444039	1.019098	10.124623	0.053024	-0.082237	0.063720	-0.006113	0.002546	0.025311
35294	28239399	-2.585711	1.022199	10.040751	0.066426	-0.075017	0.045413	-0.006467	0.002553	0.025101
35295	28239424	-2.345313	0.984566	9.773441	0.064711	-0.088723	0.043038	-0.005866	0.002459	0.024433
35296	28239449	-2.151224	0.771510	9.719634	0.060514	-0.092459	0.050049	-0.005381	0.001927	0.024299
35297	28239474	-2.043690	0.833341	9.730532	0.074726	-0.084889	0.036976	-0.005112	0.002081	0.024326
35298	28239499	-2.176471	0.748836	9.888457	0.083034	-0.080584	0.029936	-0.005444	0.001869	0.024721
35299	28239524	-2.234293	0.689914	9.823060	0.091586	-0.083618	0.031383	-0.005588	0.001722	0.024557
35300	28239549	-2.143050	0.693022	9.722035	0.104716	-0.084509	0.031868	-0.005360	0.001729	0.024305
35301	28239574	-2.072679	0.623191	9.632723	0.116387	-0.080477	0.027376	-0.005184	0.001554	0.024082
35302	28239599	-2.166711	0.606195	9.756305	0.130939	-0.076909	0.030118	-0.005419	0.001511	0.024390
35303	28239624	-2.300851	0.546458	9.908986	0.141911	-0.081332	0.027943	-0.005755	0.001362	0.024772
35304	28239649	-2.402849	0.577984	9.950281	0.157468	-0.087601	0.033771	-0.006010	0.001440	0.024875
35305	28239674	-2.517198	0.604201	9.939646	0.151464	-0.096479	0.032911	-0.006296	0.001506	0.024849
35306	28239699	-2.552916	0.660618	9.947800	0.171953	-0.107816	0.034648	-0.006386	0.001646	0.024869
35307	28239724	-2.583318	0.642628	9.967673	0.182867	-0.119361	0.042275	-0.006462	0.001601	0.024919
35308	28239749	-2.583377	0.637071	9.991606	0.191025	-0.132464	0.043418	-0.006463	0.001586	0.024978
35309	28239774	-2.546167	0.620613	9.967624	0.207374	-0.143762	0.043121	-0.006370	0.001545	0.024918
35310	28239799	-2.511747	0.562899	9.943505	0.214076	-0.156514	0.046261	-0.006284	0.001400	0.024858
35311	28239824	-2.464798	0.561632	9.916933	0.225695	-0.171632	0.048189	-0.006167	0.001397	0.024791
35312	28239849	-2.402699	0.598842	9.897141	0.237305	-0.181389	0.052562	-0.006012	0.001489	0.024742
35313	28239874	-2.331050	0.613982	9.895900	0.248697	-0.188953	0.050965	-0.005834	0.001527	0.024739
35314	28239899	-2.310101	0.650042	9.814897	0.268169	-0.193532	0.051439	-0.005781	0.001617	0.024536
35315	28239924	-2.245310	0.713250	9.837767	0.277819	-0.199296	0.055793	-0.005620	0.001774	0.024594
35316	28239949	-2.218643	0.760704	9.668986	0.283462	-0.205757	0.052078	-0.005553	0.001893	0.024172
35317	28239974	-2.210082	0.864133	9.606816	0.297399	-0.202829	0.050239	-0.005531	0.002151	0.024016
35318	28239999	-2.257115	0.858331	9.683926	0.298975	-0.202224	0.056778	-0.005649	0.002136	0.024209
35319	28240024	-2.175672	0.796736	9.593334	0.303134	-0.203232	0.053172	-0.005445	0.001982	0.023983
35320	28240049	-2.090123	0.843572	9.568279	0.300854	-0.202638	0.062074	-0.005232	0.002100	0.023920
35321	28240074	-2.079985	0.962425	9.436990	0.293569	-0.199865	0.068861	-0.005206	0.002397	0.023592
35322	28240099	-2.007840	1.048322	9.293659	0.298223	-0.200765	0.064072	-0.005026	0.002612	0.023234
35323	28240124	-2.034260	1.089087	9.406856	0.298499	-0.191121	0.069334	-0.005092	0.002714	0.023517
35324	28240149	-1.956617	1.209272	9.302229	0.283951	-0.187352	0.073804	-0.004897	0.003014	0.023255
35325	28240174	-1.894653	1.155624	9.278121	0.292002	-0.181256	0.071481	-0.004742	0.002880	0.023195
35326	28240199	-1.839682	1.071643	9.293853	0.289021	-0.172406	0.074027	-0.004604	0.002670	0.023235
35327	28240224	-1.817376	1.280700	9.313177	0.278376	-0.163554	0.076199	-0.004549	0.003193	0.023283
35328	28240249	-1.922057	1.356359	9.329318	0.275239	-0.156353	0.078799	-0.004810	0.003382	0.023324
35329	28240274	-1.998730	1.488894	9.218018	0.265552	-0.146675	0.077768	-0.005001	0.003714	0.023045
35330	28240299	-1.984641	1.595064	9.165160	0.245915	-0.146146	0.073470	-0.004966	0.003980	0.022913
35331	28240324	-1.926674	1.566416	9.102588	0.228699	-0.145736	0.077735	-0.004821	0.003909	0.022757
35332	28240349	-1.757994	1.650995	8.923408	0.217709	-0.137736	0.077647	-0.004399	0.004121	0.022309
35333	28240374	-1.604870	1.636037	8.854282	0.182664	-0.126436	0.071970	-0.004016	0.004085	0.022136
35334	28240399	-1.444513	1.716499	8.688371	0.170337	-0.112532	0.060757	-0.003615	0.004286	0.021721
35335	28240424	-1.459842	1.698384	8.744159	0.146009	-0.095762	0.057915	-0.003653	0.004242	0.021861
35336	28240449	-1.522077	1.768095	8.870711	0.134240	-0.078492	0.047953	-0.003808	0.004416	0.022177
35337	28240474	-1.581800	1.774217	9.072880	0.111854	-0.064033	0.043304	-0.003957	0.004432	0.022683
35338	28240499	-1.716840	1.799001	9.087510	0.089814	-0.047448	0.033443	-0.004294	0.004495	0.022719
35339	28240524	-1.792766	1.767203	9.125933	0.084323	-0.033805	0.019003	-0.004483	0.004415	0.022815
35340	28240549	-1.838680	1.593581	9.190499	0.066398	-0.023262	0.011693	-0.004597	0.003982	0.022976
35341	28240574	-1.847433	1.397847	9.270983	0.062615	-0.021312	0.002748	-0.004619	0.003493	0.023178
35342	28240599	-1.879519	1.334065	9.407749	0.051446	-0.012162	0.003529	-0.004699	0.003334	0.023520
35343	28240624	-1.959615	1.351743	9.470269	0.050110	-0.004183	-0.004216	-0.004899	0.003378	0.023676
35344	28240649	-2.021829	1.299220	9.537904	0.046627	0.001188	-0.000803	-0.005055	0.003247	0.023845
35345	28240674	-2.110094	1.284019	9.555092	0.050761	-0.000221	-0.009190	-0.005275	0.003209	0.023888
35346	28240699	-2.125425	1.188957	9.564084	0.038154	-0.008063	-0.001304	-0.005314	0.002971	0.023910
35347	28240724	-2.121274	1.202758	9.576097	0.032617	-0.006206	-0.000595	-0.005303	0.003006	0.023940
35348	28240749	-2.056444	1.206957	9.546893	0.027589	-0.006430	-0.003459	-0.005141	0.003017	0.023867
35349	28240774	-1.979210	1.231756	9.535039	0.027484	-0.002971	-0.001261	-0.004948	0.003079	0.023838
35350	28240799	-1.972292	1.197511	9.492367	0.023773	-0.004731	-0.000657	-0.004931	0.002993	0.023731
35351	28240824	-1.987344	1.196279	9.449791	0.018859	0.003593	0.004695	-0.004968	0.002990	0.023625
35352	28240849	-1.841143	1.204745	9.402022	0.014894	0.006971	0.000900	-0.004603	0.003011	0.023505
35353	28240874	-1.821444	1.205337	9.238437	0.013493	0.015895	-0.003199	-0.004553	0.003013	0.023096
35354	28240899	-1.777235	1.253522	9.227986	0.009993	0.032726	-0.008638	-0.004442	0.003134	0.023070
35355	28240924	-1.774862	1.141742	9.311414	0.007509	0.038049	-0.000435	-0.004436	0.002854	0.023279
35358	28240949	-1.777536	1.209171	9.316943	0.007811	0.043865	-0.005274	-0.004443	0.003023	0.023293
35359	28240974	-1.715419	1.250502	9.290517	0.001931	0.059588	-0.009093	-0.004287	0.003126	0.023227
35360	28240999	-1.734784	1.161115	9.279583	-0.000328	0.077987	-0.006934	-0.004335	0.002903	0.023199
35361	28241024	-1.709971	1.078761	9.220791	-0.004666	0.092046	-0.011121	-0.004272	0.002697	0.023052
35362	28241049	-1.744351	1.098109	9.203543	0.003232	0.103706	-0.005859	-0.004358	0.002745	0.023009
35363	28241074	-1.827067	1.173550	9.275573	-0.002359	0.105964	-0.011373	-0.004565	0.002934	0.023190
35364	28241099	-1.896024	1.220225	9.312919	-0.001268	0.117575	-0.009561	-0.004737	0.003051	0.023283
35365	28241124	-1.857737	1.157922	9.399197	-0.004962	0.122255	-0.010653	-0.004641	0.002895	0.023499
35366	28241149	-1.846600	1.101861	9.319212	0.000730	0.130366	-0.009805	-0.004613	0.002755	0.023299
35367	28241174	-1.858716	1.106384	9.207500	0.005060	0.137579	-0.013791	-0.004643	0.002766	0.023020
35368	28241199	-1.853019	1.146470	9.153096	-0.005335	0.145705	-0.005339	-0.004628	0.002866	0.022884
35369	28241224	-1.959013	1.194689	9.146557	-0.009991	0.143547	-0.005631	-0.004893	0.002987	0.022867
35370	28241249	-1.996009	1.348750	9.161676	-0.017384	0.140588	-0.009203	-0.004986	0.003372	0.022905
35371	28241274	-1.925637	1.435491	9.157991	-0.019635	0.138752	-0.009529	-0.004810	0.003589	0.022896
35372	28241299	-1.811318	1.432591	9.182004	-0.020814	0.143935	-0.018644	-0.004524	0.003582	0.022956
35373	28241324	-1.762897	1.471346	9.126294	-0.028795	0.153948	-0.027123	-0.004403	0.003679	0.022816
35374	28241349	-1.742055	1.479855	9.055839	-0.032349	0.168058	-0.035889	-0.004350	0.003701	0.022640
