PacketCounter	SampleTimeFine	Acc_X	Acc_Y	Acc_Z	Gyr_X	Gyr_Y	Gyr_Z	Roll	Pitch	Yaw	Latitude	Longitude	Altitude
24455	5485874	9.514981	-1.628268	1.550878	-0.021794	-0.012699	0.000457	-45.918677	-76.508183	44.326912	39.979009266	116.339143704	39.087756
24456	5485899	9.537105	-1.617187	1.522969	-0.017810	-0.014092	-0.003406	-45.926523	-76.510753	44.332280	39.979009267	116.339143704	39.087762
24457	5485924	9.501247	-1.624073	1.532280	-0.018869	-0.013869	-0.000903	-45.935467	-76.513044	44.338622	39.979009268	116.339143704	39.087768
24458	5485949	9.516518	-1.628029	1.487012	-0.026172	-0.015445	0.002882	-45.947709	-76.515101	44.347278	39.979009269	116.339143704	39.087773
24459	5485974	9.501303	-1.643211	1.497617	-0.030594	-0.011513	-0.001311	-45.957157	-76.517198	44.352411	39.979009270	116.339143704	39.087778
24460	5485999	9.530227	-1.623989	1.514957	-0.029360	-0.013703	0.004427	-45.969755	-76.518922	44.360964	39.979009271	116.339143704	39.087784
24461	5486024	9.546753	-1.643276	1.505639	-0.030731	-0.015065	-0.001873	-45.980521	-76.521431	44.367431	39.979009272	116.339143704	39.087789
24462	5486049	9.523277	-1.651580	1.522856	-0.033772	-0.011273	0.005208	-45.993036	-76.522832	44.375249	39.979009273	116.339143704	39.087794
24463	5486074	9.556395	-1.643285	1.509598	-0.033560	-0.013457	0.003389	-46.005706	-76.524637	44.383258	39.979009274	116.339143704	39.088495
24464	5486099	9.559159	-1.632258	1.510986	-0.036471	-0.013563	0.004436	-46.019277	-76.526345	44.391764	39.979009275	116.339143704	39.088501
24465	5486124	9.549531	-1.614395	1.513698	-0.035606	-0.010777	0.000098	-46.029727	-76.528222	44.397188	39.979009276	116.339143704	39.088507
24466	5486149	9.550882	-1.614430	1.526995	-0.035439	-0.011890	0.001989	-46.041419	-76.530014	44.403915	39.979009277	116.339143704	39.088512
24467	5486174	9.553638	-1.611700	1.528334	-0.037834	-0.009607	0.001656	-46.052335	-76.531614	44.409490	39.979009278	116.339143704	39.088518
24468	5486199	9.564652	-1.635057	1.520285	-0.042771	-0.013390	0.002688	-46.066019	-76.533483	44.417184	39.979009279	116.339143704	39.088524
24469	5486224	9.548179	-1.615720	1.501715	-0.049745	-0.014561	0.008547	-46.083641	-76.534863	44.427900	39.979009280	116.339143704	39.088530
24470	5486249	9.559236	-1.590957	1.511098	-0.048205	-0.011380	0.008997	-46.099860	-76.535881	44.437400	39.979009281	116.339143704	39.088536
24471	5486274	9.566094	-1.615713	1.500399	-0.054538	-0.009172	0.007689	-46.115493	-76.536813	44.445366	39.979009282	116.339143704	39.091158
24472	5486299	9.574257	-1.622738	1.541602	-0.053117	-0.012945	0.010030	-46.133523	-76.537878	44.456005	39.979009283	116.339143705	39.091166
24473	5486324	9.578383	-1.622735	1.544270	-0.054774	-0.010389	0.006995	-46.149431	-76.539002	44.464218	39.979009283	116.339143705	39.091175
24474	5486349	9.554873	-1.637974	1.570792	-0.056596	-0.015147	0.006920	-46.167625	-76.540605	44.474513	39.979009284	116.339143705	39.091184
24475	5486374	9.560314	-1.647721	1.592059	-0.053608	-0.017111	0.003362	-46.184768	-76.542769	44.484168	39.979009285	116.339143705	39.091193
24476	5486399	9.546538	-1.654560	1.589348	-0.055343	-0.017680	0.007311	-46.204046	-76.544582	44.495762	39.979009286	116.339143705	39.091203
24477	5486424	9.539565	-1.675284	1.610551	-0.054556	-0.015135	0.007817	-46.222326	-76.546089	44.506445	39.979009287	116.339143705	39.091212
24478	5486449	9.560146	-1.679541	1.641131	-0.058983	-0.020497	0.013386	-46.245867	-76.547550	44.521887	39.979009288	116.339143705	39.091222
24479	5486474	9.522885	-1.675490	1.665087	-0.058049	-0.023691	0.012136	-46.270144	-76.549455	44.538222	39.979009289	116.339143705	39.089912
24480	5486499	9.558683	-1.686527	1.670361	-0.053121	-0.027025	0.010292	-46.294402	-76.551879	44.555263	39.979009290	116.339143705	39.089921
24481	5486524	9.575226	-1.685160	1.669063	-0.049631	-0.029989	0.011708	-46.320036	-76.554449	44.574233	39.979009291	116.339143705	39.089930
24482	5486549	9.587647	-1.646681	1.686449	-0.045969	-0.037776	0.008914	-46.347375	-76.558076	44.595495	39.979009292	116.339143705	39.089939
24483	5486574	9.564212	-1.653564	1.686442	-0.040184	-0.040922	0.011350	-46.376271	-76.561759	44.619210	39.979009293	116.339143705	39.089949
24484	5486599	9.547670	-1.670033	1.679746	-0.033773	-0.042759	0.008066	-46.403702	-76.565962	44.642362	39.979009294	116.339143705	39.089959
24485	5486624	9.553137	-1.685221	1.688978	-0.032705	-0.042391	0.007319	-46.430528	-76.570203	44.665049	39.979009295	116.339143705	39.089970
24486	5486649	9.577966	-1.670070	1.687746	-0.027974	-0.044486	0.007613	-46.457724	-76.574618	44.688813	39.979009296	116.339143706	39.089980
24487	5486674	9.582166	-1.657613	1.665171	-0.032526	-0.043990	0.010408	-46.486529	-76.578690	44.713559	39.979009297	116.339143706	39.080906
24488	5486699	9.600228	-1.625809	1.624053	-0.033595	-0.041591	0.009455	-46.514063	-76.582623	44.736842	39.979009298	116.339143706	39.080909
24489	5486724	9.618170	-1.621658	1.610812	-0.031827	-0.039044	0.006133	-46.538877	-76.586647	44.757587	39.979009299	116.339143706	39.080912
24490	5486749	9.586507	-1.625730	1.602789	-0.031757	-0.033246	0.003736	-46.560174	-76.590348	44.774728	39.979009300	116.339143706	39.080916
24491	5486774	9.578190	-1.629904	1.617398	-0.031732	-0.025782	0.006311	-46.579284	-76.593045	44.789624	39.979009301	116.339143706	39.080919
24492	5486799	9.601630	-1.613431	1.620119	-0.026169	-0.023472	0.008367	-46.597444	-76.595299	44.804363	39.979009302	116.339143706	39.080924
24493	5486824	9.578180	-1.617565	1.626740	-0.032914	-0.022976	-0.000435	-46.612725	-76.598419	44.815147	39.979009303	116.339143706	39.080929
24494	5486849	9.574054	-1.635416	1.614724	-0.031970	-0.016093	0.005230	-46.627207	-76.600272	44.825251	39.979009304	116.339143706	39.080934
24495	5486874	9.565779	-1.646419	1.613344	-0.028121	-0.012463	0.002363	-46.638371	-76.602065	44.832509	39.979009305	116.339143706	39.074965
24496	5486899	9.561600	-1.634126	1.633325	-0.023982	-0.007105	0.000316	-46.645756	-76.603545	44.836492	39.979009306	116.339143706	39.074964
24497	5486924	9.543731	-1.631290	1.621390	-0.019871	-0.004588	0.003612	-46.652813	-76.604433	44.840743	39.979009307	116.339143706	39.074964
24498	5486949	9.549243	-1.654613	1.610637	-0.018743	-0.003242	-0.003172	-46.656320	-76.605897	44.841511	39.979009308	116.339143706	39.074964
24499	5486974	9.516133	-1.665671	1.615927	-0.013980	-0.000803	-0.005282	-46.657206	-76.607340	44.840287	39.979009309	116.339143706	39.074964
24500	5486999	9.510738	-1.644905	1.582722	-0.011195	0.000302	-0.003241	-46.658052	-76.608461	44.839431	39.979009310	116.339143705	39.074964
24501	5487024	9.501084	-1.644933	1.586718	-0.010683	0.003394	-0.004312	-46.657030	-76.609391	44.836731	39.979009311	116.339143705	39.074964
24502	5487049	9.502549	-1.661261	1.544092	-0.007179	0.005591	-0.005482	-46.654061	-76.610226	44.832545	39.979009312	116.339143705	39.074963
24503	5487074	9.509533	-1.655611	1.508219	-0.008856	0.009102	-0.008202	-46.648672	-76.610999	44.825625	39.979009313	116.339143705	39.076956
24504	5487099	9.477813	-1.680387	1.500149	-0.008188	0.006136	-0.003228	-46.646540	-76.611546	44.822150	39.979009314	116.339143705	39.076958
24505	5487124	9.464110	-1.691224	1.465523	-0.009523	0.010288	-0.009343	-46.640255	-76.612321	44.814210	39.979009315	116.339143705	39.076958
24506	5487149	9.448868	-1.703725	1.489426	-0.007021	0.011979	-0.010397	-46.632436	-76.613039	44.805062	39.979009316	116.339143705	39.076958
24507	5487174	9.460021	-1.687056	1.448231	-0.004344	0.015281	-0.002198	-46.626176	-76.612579	44.797911	39.979009317	116.339143705	39.076958
24508	5487199	9.471055	-1.706265	1.434883	-0.004582	0.018671	-0.008368	-46.615917	-76.612427	44.786614	39.979009318	116.339143705	39.076957
24509	5487224	9.469721	-1.696585	1.420293	-0.002541	0.017917	-0.008035	-46.605834	-76.612314	44.775798	39.979009319	116.339143705	39.076955
24510	5487249	9.462809	-1.702095	1.426926	-0.000048	0.016890	-0.008456	-46.595669	-76.612346	44.765265	39.979009320	116.339143705	39.076953
24511	5487274	9.462816	-1.710335	1.418924	0.007936	0.020199	-0.003047	-46.585151	-76.611489	44.755544	39.979009321	116.339143705	39.072996
24512	5487299	9.462796	-1.692532	1.437583	0.005773	0.018810	-0.006777	-46.574008	-76.611156	44.744863	39.979009322	116.339143705	39.072989
24513	5487324	9.465490	-1.685749	1.464208	0.012138	0.019698	-0.010376	-46.560078	-76.611110	44.732254	39.979009323	116.339143705	39.072982
24514	5487349	9.439273	-1.696782	1.478770	0.012964	0.021133	-0.007667	-46.546523	-76.610639	44.720152	39.979009324	116.339143705	39.072974
24515	5487374	9.473770	-1.674765	1.472229	0.019008	0.022349	-0.010638	-46.530342	-76.610358	44.706241	39.979009325	116.339143706	39.072965
24516	5487399	9.492970	-1.670776	1.505497	0.019635	0.018847	-0.011574	-46.515214	-76.610517	44.693504	39.979009326	116.339143706	39.072957
24517	5487424	9.503952	-1.650234	1.540125	0.019075	0.016837	-0.014344	-46.499895	-76.611162	44.680489	39.979009327	116.339143706	39.072948
24518	5487449	9.498358	-1.651752	1.570716	0.025831	0.013784	-0.010261	-46.486632	-76.611683	44.670582	39.979009327	116.339143706	39.072938
24519	5487474	9.492699	-1.682159	1.613152	0.023249	0.013429	-0.008899	-46.474457	-76.612097	44.661412	39.979009328	116.339143706	39.070043
24520	5487499	9.487077	-1.680956	1.658373	0.016837	0.005935	-0.009821	-46.466087	-76.613346	44.655211	39.979009329	116.339143706	39.070031
24521	5487524	9.493910	-1.683809	1.679641	0.018342	0.003795	-0.008678	-46.458908	-76.614687	44.650455	39.979009330	116.339143706	39.070018
24522	5487549	9.499293	-1.666132	1.738233	0.018732	-0.006707	-0.006841	-46.457016	-76.616873	44.651192	39.979009331	116.339143706	39.070005
24523	5487574	9.511645	-1.668978	1.759520	0.013372	-0.011626	-0.005493	-46.458599	-76.619405	44.654710	39.979009332	116.339143706	39.069993
24524	5487599	9.535021	-1.659452	1.784809	0.009282	-0.012991	-0.011876	-46.458715	-76.622734	44.656120	39.979009333	116.339143706	39.069981
24525	5487624	9.529445	-1.670500	1.804707	0.013103	-0.026502	-0.007370	-46.466056	-76.626929	44.665518	39.979009334	116.339143706	39.069969
24526	5487649	9.545972	-1.647186	1.820797	0.013240	-0.023739	-0.001016	-46.474813	-76.630191	44.676391	39.979009335	116.339143706	39.069957
24527	5487674	9.584613	-1.621031	1.812879	0.010434	-0.027813	-0.010531	-46.481808	-76.634842	44.685039	39.979009336	116.339143706	39.067119
24528	5487699	9.590135	-1.634743	1.800894	0.013991	-0.031817	-0.010626	-46.490011	-76.639898	44.695453	39.979009337	116.339143706	39.067106
24529	5487724	9.584681	-1.611300	1.787663	0.011936	-0.035810	-0.006612	-46.501929	-76.644931	44.709384	39.979009338	116.339143706	39.067092
24530	5487749	9.581974	-1.600247	1.775761	0.008717	-0.031689	-0.010918	-46.510725	-76.650003	44.719630	39.979009339	116.339143706	39.067079
24531	5487774	9.565510	-1.613881	1.741081	0.007267	-0.028707	-0.010999	-46.518397	-76.654790	44.728507	39.979009340	116.339143705	39.067067
24532	5487799	9.566963	-1.613760	1.706559	0.000070	-0.032821	-0.006966	-46.530584	-76.659563	44.740966	39.979009341	116.339143705	39.067055
24533	5487824	9.578049	-1.613651	1.682602	-0.000991	-0.024836	-0.003771	-46.540757	-76.663217	44.751199	39.979009342	116.339143705	39.067043
24534	5487849	9.593309	-1.612129	1.645388	-0.009693	-0.014593	-0.006485	-46.546561	-76.666143	44.755660	39.979009343	116.339143705	39.067031
24535	5487874	9.592089	-1.573458	1.604290	-0.013568	-0.014062	-0.005510	-46.553095	-76.668915	44.760300	39.979009343	116.339143705	39.069237
24536	5487899	9.592073	-1.600932	1.590904	-0.019364	-0.006542	-0.007765	-46.556222	-76.671181	44.760587	39.979009344	116.339143705	39.069229
24538	5487924	9.567335	-1.625528	1.550917	-0.027050	0.000946	-0.008215	-46.556976	-76.672756	44.757303	39.979009345	116.339143705	39.069220
24540	5487949	9.570104	-1.635147	1.540249	-0.028737	0.006391	-0.009045	-46.555236	-76.673882	44.751208	39.979009346	116.339143704	39.069212
24541	5487974	9.574329	-1.617146	1.513719	-0.037806	0.007801	-0.012891	-46.546002	-76.676983	44.754693	39.979009371	116.339143484	39.074095
24542	5487999	9.566047	-1.630885	1.511007	-0.035252	0.015433	-0.003506	-46.543526	-76.676642	44.746883	39.979009372	116.339143484	39.074102
24543	5488024	9.545388	-1.643229	1.500300	-0.035198	0.017329	-0.007974	-46.538352	-76.676578	44.736308	39.979009373	116.339143484	39.074109
24544	5488049	9.543971	-1.657030	1.510902	-0.036606	0.022031	-0.007549	-46.531493	-76.676006	44.723793	39.979009374	116.339143484	39.074116
24545	5488074	9.510903	-1.641918	1.513595	-0.041690	0.022283	-0.008094	-46.525025	-76.675465	44.710932	39.979009375	116.339143484	39.074042
24546	5488099	9.494362	-1.647428	1.516211	-0.039214	0.022881	-0.014053	-46.515460	-76.675485	44.695254	39.979009376	116.339143484	39.074048
24547	5488124	9.499809	-1.674991	1.529389	-0.037622	0.018612	-0.007117	-46.510428	-76.675205	44.684468	39.979009377	116.339143483	39.074055
24548	5488149	9.472308	-1.659778	1.517482	-0.039436	0.016630	-0.008073	-46.506128	-76.675218	44.674167	39.979009377	116.339143483	39.074061
24549	5488174	9.444770	-1.672102	1.498812	-0.037493	0.016716	-0.010452	-46.500521	-76.675471	44.662809	39.979009378	116.339143483	39.074065
24550	5488199	9.436464	-1.662541	1.516147	-0.030513	0.013612	-0.009386	-46.495719	-76.675918	44.653306	39.979009379	116.339143483	39.074070
24551	5488224	9.421317	-1.648800	1.522798	-0.026132	0.010195	-0.008406	-46.492196	-76.676600	44.645763	39.979009380	116.339143483	39.074074
24552	5488249	9.422749	-1.623990	1.517562	-0.024310	0.009100	-0.005244	-46.490209	-76.677062	44.640065	39.979009381	116.339143483	39.074078
24553	5488274	9.436535	-1.637700	1.504248	-0.022097	-0.006804	-0.007857	-46.493793	-76.679364	44.640420	39.979009382	116.339143482	39.077823
24554	5488299	9.436544	-1.662408	1.488198	-0.024241	-0.005259	-0.010517	-46.495899	-76.681789	44.638939	39.979009383	116.339143482	39.077828
24555	5488324	9.444802	-1.665186	1.488184	-0.021641	-0.009933	-0.005019	-46.501976	-76.684105	44.641921	39.979009383	116.339143482	39.077833
24556	5488349	9.440659	-1.666583	1.492189	-0.022215	-0.015381	-0.008482	-46.509086	-76.687317	44.645881	39.979009384	116.339143482	39.077838
24557	5488374	9.435119	-1.669348	1.498826	-0.024362	-0.015235	-0.007363	-46.516908	-76.690398	44.650257	39.979009385	116.339143482	39.077841
24558	5488399	9.454371	-1.691397	1.505407	-0.020847	-0.020826	-0.007707	-46.526543	-76.694066	44.657012	39.979009386	116.339143482	39.077844
24559	5488424	9.472394	-1.658268	1.480243	-0.019597	-0.018896	-0.005999	-46.535867	-76.697366	44.663632	39.979009387	116.339143482	39.077847
24560	5488449	9.468196	-1.678946	1.489479	-0.023013	-0.026101	-0.004387	-46.549526	-76.701208	44.674203	39.979009388	116.339143481	39.077849
24561	5488474	9.461271	-1.680396	1.506770	-0.012062	-0.029583	-0.007127	-46.562013	-76.705677	44.685183	39.979009388	116.339143481	39.080560
24562	5488499	9.479108	-1.675036	1.540054	-0.020181	-0.032592	-0.005615	-46.577627	-76.710285	44.698179	39.979009389	116.339143481	39.080564
24563	5488524	9.466654	-1.673699	1.558661	-0.008990	-0.029157	-0.003958	-46.590824	-76.714381	44.710340	39.979009390	116.339143481	39.080567
24564	5488549	9.477620	-1.679296	1.582606	-0.004357	-0.034343	-0.006685	-46.604516	-76.719271	44.723690	39.979009391	116.339143481	39.080570
24565	5488574	9.484549	-1.666875	1.571999	-0.000973	-0.039236	-0.006589	-46.619931	-76.724632	44.739308	39.979009392	116.339143481	39.080573
24566	5488599	9.496986	-1.657212	1.561385	0.002903	-0.037196	-0.002033	-46.635803	-76.729316	44.755966	39.979009393	116.339143481	39.080576
24567	5488624	9.523163	-1.633899	1.578763	0.001158	-0.042042	-0.007957	-46.651606	-76.735093	44.772297	39.979009393	116.339143481	39.080579
24568	5488649	9.530035	-1.621529	1.593450	-0.003655	-0.043140	-0.009374	-46.668008	-76.741125	44.788533	39.979009394	116.339143480	39.080581
24569	5488674	9.520304	-1.636798	1.617330	-0.003037	-0.037074	-0.006923	-46.682674	-76.746304	44.803077	39.979009395	116.339143480	39.080352
24570	5488699	9.513374	-1.627231	1.639964	-0.012259	-0.039864	-0.007620	-46.699617	-76.751829	44.818603	39.979009396	116.339143480	39.080355
24571	5488724	9.549254	-1.609302	1.629397	-0.015433	-0.040577	-0.009090	-46.716731	-76.757576	44.833837	39.979009397	116.339143480	39.080357
24572	5488749	9.547785	-1.630054	1.650612	-0.014883	-0.037022	-0.004750	-46.734015	-76.762520	44.849326	39.979009397	116.339143480	39.080359
24573	5488774	9.536782	-1.616278	1.654660	-0.022534	-0.034252	-0.010726	-46.748685	-76.767815	44.861004	39.979009398	116.339143480	39.080362
24574	5488799	9.545066	-1.613521	1.650652	-0.027239	-0.032626	-0.008750	-46.764142	-76.772743	44.872797	39.979009399	116.339143479	39.080364
24575	5488824	9.568396	-1.628764	1.681214	-0.029793	-0.034371	-0.007069	-46.781451	-76.777667	44.886118	39.979009400	116.339143479	39.080367
24576	5488849	9.572538	-1.635635	1.674552	-0.034477	-0.030400	-0.005035	-46.798527	-76.781987	44.898509	39.979009401	116.339143479	39.080370
24577	5488874	9.571177	-1.634213	1.666584	-0.033511	-0.030950	-0.003643	-46.816300	-76.786216	44.911758	39.979009402	116.339143479	39.081112
24578	5488899	9.579433	-1.621892	1.675933	-0.032336	-0.033915	-0.006461	-46.834058	-76.791028	44.925164	39.979009402	116.339143479	39.081116
24579	5488924	9.565677	-1.624591	1.667929	-0.030978	-0.034066	-0.003807	-46.852808	-76.795577	44.939789	39.979009403	116.339143478	39.081121
24580	5488949	9.591827	-1.631510	1.675903	-0.028904	-0.033452	-0.005049	-46.870480	-76.800194	44.953611	39.979009404	116.339143478	39.081126
24581	5488974	9.589062	-1.661731	1.663824	-0.030309	-0.029913	-0.006132	-46.886333	-76.804577	44.965359	39.979009405	116.339143478	39.081132
24582	5488999	9.611167	-1.641051	1.646640	-0.025883	-0.028181	-0.004590	-46.901433	-76.808629	44.976983	39.979009406	116.339143478	39.081138
24583	5489024	9.586333	-1.660285	1.650540	-0.021985	-0.030690	-0.006445	-46.916329	-76.813120	44.988971	39.979009406	116.339143477	39.081144
24584	5489049	9.576738	-1.653371	1.631957	-0.018418	-0.029214	-0.008810	-46.929075	-76.817713	44.999276	39.979009407	116.339143477	39.081151
24585	5489074	9.568506	-1.665674	1.613272	-0.020139	-0.030349	-0.004543	-46.944365	-76.821970	45.011941	39.979009408	116.339143477	39.083818
24586	5489099	9.580966	-1.655946	1.590719	-0.022382	-0.021316	-0.003374	-46.956434	-76.825220	45.020967	39.979009409	116.339143477	39.083828
24587	5489124	9.556177	-1.669644	1.576019	-0.019346	-0.021021	-0.004295	-46.967556	-76.828538	45.029467	39.979009410	116.339143476	39.083839
24588	5489149	9.569992	-1.649010	1.578743	-0.023715	-0.022300	-0.005396	-46.979422	-76.832096	45.038088	39.979009411	116.339143476	39.083849
24589	5489174	9.546576	-1.654477	1.568092	-0.017962	-0.016256	-0.003847	-46.988410	-76.834900	45.044599	39.979009411	116.339143476	39.083859
24590	5489199	9.517722	-1.663979	1.534784	-0.021118	-0.015809	-0.007774	-46.996012	-76.838072	45.049224	39.979009412	116.339143475	39.083870
24591	5489224	9.532867	-1.668140	1.533452	-0.020190	-0.016195	-0.003994	-47.005237	-76.840885	45.055651	39.979009413	116.339143475	39.083880
24592	5489249	9.506682	-1.679111	1.530751	-0.025313	-0.015897	-0.001517	-47.016100	-76.843410	45.063006	39.979009414	116.339143475	39.083891
24593	5489274	9.494335	-1.683145	1.508111	-0.029248	-0.013849	-0.004695	-47.025284	-76.846067	45.068059	39.979009415	116.339143474	39.079699
24594	5489299	9.481948	-1.668033	1.510813	-0.024800	-0.013056	-0.002211	-47.034517	-76.848387	45.073815	39.979009415	116.339143474	39.079705
24595	5489324	9.480550	-1.652938	1.525500	-0.031520	-0.015944	-0.000562	-47.046699	-76.850815	45.081612	39.979009416	116.339143474	39.079710
24596	5489349	9.453044	-1.667966	1.498828	-0.027943	-0.016925	-0.006320	-47.056407	-76.853942	45.087395	39.979009417	116.339143474	39.079715
24597	5489374	9.453034	-1.636389	1.520224	-0.026196	-0.018507	-0.005990	-47.066717	-76.857189	45.094052	39.979009418	116.339143473	39.079719
24598	5489399	9.470973	-1.628125	1.516279	-0.019534	-0.016102	-0.001600	-47.076831	-76.859741	45.101488	39.979009419	116.339143473	39.079723
24599	5489424	9.473739	-1.617111	1.517627	-0.021131	-0.019273	-0.001734	-47.088546	-76.862615	45.110333	39.979009419	116.339143473	39.079727
24600	5489449	9.428258	-1.626715	1.516224	-0.018869	-0.024496	-0.006874	-47.100142	-76.866538	45.119389	39.979009420	116.339143472	39.079730
24601	5489474	9.432374	-1.628149	1.518909	-0.015286	-0.020829	-0.003450	-47.111013	-76.869743	45.128226	39.979009421	116.339143472	39.082446
24602	5489499	9.450288	-1.614441	1.528253	-0.022662	-0.023215	-0.002563	-47.124389	-76.873088	45.138552	39.979009422	116.339143472	39.082450
24603	5489524	9.450292	-1.624015	1.522911	-0.016987	-0.023773	-0.000945	-47.137886	-76.876316	45.149836	39.979009423	116.339143471	39.082454
24604	5489549	9.435106	-1.630929	1.528186	-0.018856	-0.026511	-0.001837	-47.152517	-76.879905	45.162009	39.979009423	116.339143471	39.082457
24605	5489574	9.458569	-1.614379	1.522922	-0.019678	-0.031430	-0.004230	-47.168491	-76.884223	45.175440	39.979009424	116.339143471	39.082459
24606	5489599	9.461251	-1.639252	1.541495	-0.014076	-0.033890	0.001164	-47.187036	-76.888213	45.192335	39.979009425	116.339143470	39.082461
24607	5489624	9.457102	-1.666711	1.528085	-0.020358	-0.032179	-0.003417	-47.203805	-76.892516	45.206482	39.979009426	116.339143470	39.082463
24608	5489649	9.457141	-1.658428	1.520125	-0.021629	-0.038213	-0.007951	-47.221596	-76.897882	45.221491	39.979009427	116.339143470	39.082464
24609	5489674	9.454364	-1.654306	1.529488	-0.024442	-0.038381	-0.010741	-47.238715	-76.903557	45.235395	39.979009427	116.339143469	39.079243
24610	5489699	9.494336	-1.687260	1.500141	-0.026345	-0.037585	-0.001004	-47.259829	-76.908130	45.253122	39.979009428	116.339143469	39.079240
24611	5489724	9.492977	-1.666642	1.508179	-0.028531	-0.039947	-0.001964	-47.281938	-76.913031	45.271548	39.979009429	116.339143469	39.079237
24612	5489749	9.498450	-1.672189	1.522779	-0.027940	-0.040293	-0.007620	-47.301769	-76.918560	45.287722	39.979009430	116.339143468	39.079233
24613	5489774	9.490165	-1.694186	1.512069	-0.030714	-0.042683	-0.002734	-47.325139	-76.923805	45.307122	39.979009431	116.339143468	39.079229
24614	5489799	9.502568	-1.696933	1.516061	-0.037408	-0.043067	-0.007378	-47.347719	-76.929575	45.324725	39.979009431	116.339143468	39.079225
24615	5489824	9.502482	-1.735521	1.523896	-0.039570	-0.038806	-0.006832	-47.368919	-76.934872	45.340593	39.979009432	116.339143467	39.079221
24616	5489849	9.531477	-1.734044	1.501347	-0.039431	-0.043763	-0.007580	-47.392054	-76.940728	45.358468	39.979009433	116.339143467	39.079217
24617	5489874	9.552165	-1.727151	1.494707	-0.037360	-0.039576	-0.007947	-47.412853	-76.946215	45.374249	39.979009434	116.339143467	39.079993
24618	5489899	9.548039	-1.742224	1.488016	-0.037579	-0.038253	-0.008513	-47.432860	-76.951632	45.389183	39.979009434	116.339143466	39.079989
24619	5489924	9.539753	-1.747785	1.490653	-0.042336	-0.035673	-0.010316	-47.451633	-76.956988	45.402153	39.979009435	116.339143466	39.079986
24620	5489949	9.532817	-1.768416	1.497228	-0.042751	-0.028984	-0.008689	-47.468111	-76.961524	45.412704	39.979009436	116.339143466	39.079983
24621	5489974	9.561662	-1.782284	1.526460	-0.044855	-0.034790	-0.006811	-47.488332	-76.966422	45.426789	39.979009437	116.339143465	39.079980
24622	5489999	9.580936	-1.794683	1.523765	-0.044690	-0.031808	-0.011154	-47.505366	-76.971490	45.437626	39.979009437	116.339143465	39.079977
24623	5490024	9.600264	-1.775394	1.522492	-0.048728	-0.031814	-0.015838	-47.521033	-76.977053	45.446465	39.979009438	116.339143465	39.079975
24624	5490049	9.586487	-1.787761	1.509180	-0.041983	-0.028825	-0.014785	-47.534818	-76.982214	45.454365	39.979009439	116.339143464	39.079973
24625	5490074	9.597529	-1.802832	1.497145	-0.043449	-0.026464	-0.018194	-47.546315	-76.987508	45.459702	39.979009439	116.339143464	39.082713
24626	5490099	9.609893	-1.828957	1.498400	-0.037935	-0.028133	-0.014815	-47.559207	-76.992605	45.467280	39.979009440	116.339143464	39.082715
24627	5490124	9.604418	-1.813801	1.489147	-0.039206	-0.025165	-0.023822	-47.567161	-76.998367	45.469602	39.979009441	116.339143463	39.082717
24628	5490149	9.611292	-1.819337	1.490453	-0.035667	-0.023758	-0.022852	-47.574373	-77.003890	45.471685	39.979009441	116.339143463	39.082720
24629	5490174	9.596168	-1.808301	1.486483	-0.036523	-0.022179	-0.023302	-47.580800	-77.009309	45.472834	39.979009442	116.339143463	39.082723
24630	5490199	9.629260	-1.795931	1.487884	-0.024772	-0.018412	-0.028998	-47.581432	-77.014965	45.469765	39.979009443	116.339143462	39.082727
24631	5490224	9.607208	-1.794554	1.489194	-0.024205	-0.023150	-0.031446	-47.583130	-77.021339	45.467873	39.979009443	116.339143462	39.082732
24632	5490249	9.611246	-1.819407	1.509076	-0.027557	-0.016618	-0.032169	-47.582006	-77.027158	45.462592	39.979009444	116.339143462	39.082737
24633	5490274	9.578179	-1.827649	1.503678	-0.020924	-0.023715	-0.034879	-47.582050	-77.033949	45.459486	39.979009444	116.339143461	39.085429
24634	5490299	9.576812	-1.837230	1.495717	-0.018616	-0.024509	-0.040711	-47.579679	-77.041433	45.454239	39.979009445	116.339143461	39.085438
24635	5490324	9.605727	-1.823557	1.509036	-0.019766	-0.023413	-0.039779	-47.577355	-77.048713	45.448873	39.979009446	116.339143461	39.085447
24636	5490349	9.586422	-1.809833	1.525023	-0.029957	-0.023487	-0.037278	-47.577573	-77.055736	45.444617	39.979009446	116.339143460	39.085457
24637	5490374	9.585061	-1.822167	1.511686	-0.036149	-0.028998	-0.037073	-47.581299	-77.063269	45.443051	39.979009447	116.339143460	39.085467
24638	5490399	9.587866	-1.820719	1.493078	-0.042360	-0.025806	-0.044422	-47.581353	-77.071271	45.436804	39.979009447	116.339143460	39.085478
24641	5490424	9.571353	-1.835784	1.475742	-0.054890	-0.028610	-0.046091	-47.583787	-77.079721	45.431158	39.979009448	116.339143459	39.085489
24642	5490449	9.586519	-1.852241	1.461042	-0.061683	-0.024268	-0.045015	-47.585644	-77.087637	45.423921	39.979009448	116.339143459	39.085500
24643	5490474	9.564518	-1.846649	1.443789	-0.063151	-0.026895	-0.050752	-47.579170	-77.096995	45.423001	39.979009514	116.339143314	39.089351
24644	5490499	9.583827	-1.850747	1.437134	-0.069915	-0.021249	-0.051375	-47.578114	-77.105292	45.411567	39.979009515	116.339143313	39.089375
24645	5490524	9.586630	-1.872680	1.406479	-0.076488	-0.022808	-0.058156	-47.575847	-77.114457	45.397926	39.979009515	116.339143313	39.089398
24646	5490549	9.586652	-1.880876	1.391847	-0.074926	-0.022528	-0.060284	-47.572317	-77.123819	45.383218	39.979009516	116.339143313	39.089423
24647	5490574	9.568765	-1.893207	1.375822	-0.075173	-0.019161	-0.059974	-47.567381	-77.132823	45.367034	39.979009516	116.339143312	39.089447
24648	5490599	9.561860	-1.895950	1.378467	-0.077578	-0.020851	-0.062700	-47.562404	-77.142278	45.350453	39.979009516	116.339143312	39.089472
24649	5490624	9.575710	-1.895838	1.350566	-0.070949	-0.020131	-0.064848	-47.555216	-77.151891	45.332581	39.979009517	116.339143312	39.089497
24650	5490649	9.521939	-1.908239	1.357112	-0.069046	-0.015940	-0.064273	-47.546038	-77.161037	45.312946	39.979009517	116.339143311	39.089523
24651	5490674	9.497141	-1.898623	1.357153	-0.066553	-0.012074	-0.076275	-47.529591	-77.171076	45.286225	39.979009517	116.339143311	39.092183
24652	5490699	9.493137	-1.864121	1.330634	-0.061525	-0.009818	-0.077622	-47.510770	-77.181037	45.257808	39.979009518	116.339143311	39.092211
24653	5490724	9.491868	-1.796664	1.324239	-0.050525	-0.007290	-0.077285	-47.489306	-77.190716	45.228297	39.979009518	116.339143311	39.092238
24654	5490749	9.475383	-1.795207	1.305600	-0.046340	-0.012226	-0.080018	-47.468331	-77.201159	45.199904	39.979009518	116.339143310	39.092265
24655	5490774	9.475478	-1.751135	1.289808	-0.033687	-0.005940	-0.086780	-47.439695	-77.211704	45.165514	39.979009519	116.339143310	39.092291
24656	5490799	9.467201	-1.727784	1.308480	-0.022200	-0.007786	-0.090210	-47.408754	-77.222786	45.130449	39.979009519	116.339143310	39.092316
24657	5490824	9.413500	-1.708514	1.305826	-0.014900	-0.011341	-0.089650	-47.378602	-77.234149	45.097268	39.979009519	116.339143310	39.092342
24658	5490849	9.427334	-1.679585	1.300675	-0.009328	-0.013466	-0.095075	-47.346259	-77.246286	45.062660	39.979009519	116.339143310	39.092366
24659	5490874	9.431541	-1.632806	1.302100	-0.003277	-0.015076	-0.095843	-47.313405	-77.258656	45.028417	39.979009520	116.339143309	39.086234
24660	5490899	9.394313	-1.635597	1.307430	0.003761	-0.019240	-0.090000	-47.283931	-77.270811	44.998676	39.979009520	116.339143309	39.086250
24661	5490924	9.420552	-1.612154	1.299521	-0.001410	-0.020796	-0.096580	-47.253032	-77.283806	44.966715	39.979009520	116.339143309	39.086266
24662	5490949	9.405381	-1.603946	1.306183	-0.002098	-0.027418	-0.093877	-47.226423	-77.297158	44.939053	39.979009520	116.339143309	39.086280
24663	5490974	9.395744	-1.557256	1.331601	-0.009912	-0.032614	-0.098276	-47.201400	-77.311475	44.911872	39.979009521	116.339143309	39.086293
24664	5490999	9.391623	-1.546253	1.332954	-0.013442	-0.034527	-0.099309	-47.177272	-77.326084	44.885090	39.979009521	116.339143309	39.086306
24665	5491024	9.381954	-1.555877	1.338251	-0.017612	-0.041127	-0.095561	-47.158393	-77.340940	44.863078	39.979009521	116.339143308	39.086316
24666	5491049	9.420517	-1.560049	1.338239	-0.021301	-0.047429	-0.101371	-47.140421	-77.357018	44.841455	39.979009521	116.339143308	39.086326
24667	5491074	9.412167	-1.586245	1.356793	-0.024751	-0.052993	-0.100452	-47.125901	-77.373540	44.822865	39.979009522	116.339143308	39.083222
24668	5491099	9.377657	-1.611049	1.369969	-0.038332	-0.054616	-0.103641	-47.112655	-77.390555	44.803588	39.979009522	116.339143308	39.083227
24669	5491124	9.388595	-1.637277	1.389865	-0.042374	-0.060350	-0.105555	-47.101802	-77.408328	44.786172	39.979009522	116.339143308	39.083230
24670	5491149	9.399603	-1.674367	1.377748	-0.049403	-0.063856	-0.103027	-47.094672	-77.426178	44.771539	39.979009522	116.339143308	39.083233
24671	5491174	9.406460	-1.686792	1.376372	-0.055601	-0.068122	-0.108609	-47.087964	-77.445029	44.756430	39.979009522	116.339143308	39.083235
24672	5491199	9.414779	-1.672958	1.368446	-0.060560	-0.076745	-0.104678	-47.087726	-77.464308	44.747224	39.979009523	116.339143308	39.083235
24673	5491224	9.416129	-1.689481	1.371071	-0.064616	-0.081849	-0.106718	-47.089570	-77.484299	44.739555	39.979009523	116.339143307	39.083235
24674	5491249	9.417484	-1.715599	1.363002	-0.066648	-0.086690	-0.116105	-47.089856	-77.505747	44.729994	39.979009523	116.339143307	39.083234
24675	5491274	9.402341	-1.751288	1.333641	-0.070754	-0.087824	-0.115822	-47.091378	-77.527276	44.721096	39.979009523	116.339143307	39.084089
24676	5491299	9.361072	-1.771762	1.301618	-0.072037	-0.086540	-0.114766	-47.092927	-77.548569	44.712038	39.979009523	116.339143307	39.084087
24677	5491324	9.370676	-1.791066	1.296229	-0.077893	-0.087863	-0.118648	-47.094215	-77.570398	44.701855	39.979009524	116.339143307	39.084084
24678	5491349	9.314274	-1.774433	1.280292	-0.080743	-0.089896	-0.114833	-47.098555	-77.592026	44.694380	39.979009524	116.339143307	39.084079
24679	5491374	9.277028	-1.796455	1.273583	-0.075740	-0.089268	-0.114673	-47.101944	-77.613575	44.686666	39.979009524	116.339143307	39.084072
24680	5491399	9.300426	-1.819832	1.274829	-0.076298	-0.089762	-0.113919	-47.105976	-77.635094	44.679529	39.979009524	116.339143307	39.084064
24681	5491424	9.312851	-1.822536	1.261541	-0.078201	-0.092508	-0.119281	-47.109204	-77.657443	44.671290	39.979009524	116.339143307	39.084055
24682	5491449	9.296442	-1.792147	1.231059	-0.073634	-0.092304	-0.125977	-47.108680	-77.680475	44.659881	39.979009524	116.339143307	39.084044
24683	5491474	9.257825	-1.796306	1.237674	-0.062996	-0.088112	-0.120614	-47.106989	-77.702536	44.648838	39.979009524	116.339143307	39.084871
24684	5491499	9.241284	-1.796323	1.241627	-0.055633	-0.091664	-0.119987	-47.106215	-77.724876	44.639813	39.979009524	116.339143307	39.084858
24685	5491524	9.256395	-1.795012	1.261595	-0.049658	-0.094676	-0.117484	-47.107144	-77.747248	44.633409	39.979009524	116.339143307	39.084842
24686	5491549	9.263168	-1.850102	1.280026	-0.042696	-0.097157	-0.117300	-47.108349	-77.769843	44.628307	39.979009524	116.339143307	39.084825
24687	5491574	9.247956	-1.847445	1.298648	-0.032187	-0.105962	-0.115448	-47.113145	-77.793102	44.628421	39.979009524	116.339143307	39.084806
24688	5491599	9.249388	-1.819896	1.297412	-0.022654	-0.107637	-0.124370	-47.113370	-77.817460	44.625255	39.979009524	116.339143307	39.084785
24689	5491624	9.221775	-1.789789	1.333398	-0.017534	-0.116041	-0.121555	-47.118222	-77.842342	44.627574	39.979009524	116.339143307	39.084762
24690	5491649	9.199799	-1.762221	1.325480	-0.005795	-0.120340	-0.115609	-47.126201	-77.867019	44.634809	39.979009524	116.339143307	39.084737
24691	5491674	9.207995	-1.734864	1.369484	0.002353	-0.127707	-0.119375	-47.134936	-77.892809	44.644012	39.979009524	116.339143307	39.086521
24692	5491699	9.242393	-1.734940	1.392077	0.010188	-0.134084	-0.120941	-47.145002	-77.919384	44.655723	39.979009524	116.339143307	39.086494
24693	5491724	9.257575	-1.685488	1.408219	0.019950	-0.141735	-0.122683	-47.156684	-77.946887	44.670515	39.979009523	116.339143307	39.086464
24694	5491749	9.283789	-1.645620	1.421659	0.028117	-0.154072	-0.119902	-47.174611	-77.975299	44.692887	39.979009523	116.339143307	39.086434
24695	5491774	9.290684	-1.609931	1.435085	0.025086	-0.165854	-0.119036	-47.199291	-78.004764	44.721717	39.979009523	116.339143307	39.086401
24696	5491799	9.276947	-1.593379	1.428508	0.026044	-0.170577	-0.120597	-47.225592	-78.034851	44.752341	39.979009523	116.339143307	39.086367
24697	5491824	9.308730	-1.556156	1.415314	0.019498	-0.179866	-0.110951	-47.262034	-78.064823	44.792368	39.979009523	116.339143306	39.086331
24698	5491849	9.333497	-1.585066	1.411257	0.011370	-0.176837	-0.112714	-47.297508	-78.094681	44.830213	39.979009523	116.339143306	39.086294
24699	5491874	9.381862	-1.546423	1.379494	-0.005807	-0.185254	-0.112839	-47.339789	-78.125364	44.872495	39.979009522	116.339143306	39.086061
24700	5491899	9.390035	-1.585022	1.391360	-0.025941	-0.185795	-0.108656	-47.387382	-78.155653	44.917253	39.979009522	116.339143306	39.086020
24701	5491924	9.373410	-1.603002	1.421834	-0.044146	-0.185646	-0.100747	-47.441410	-78.185084	44.965916	39.979009522	116.339143306	39.085979
24702	5491949	9.377351	-1.644462	1.468265	-0.062770	-0.193381	-0.097868	-47.503614	-78.214950	45.020202	39.979009522	116.339143306	39.085937
24703	5491974	9.392341	-1.703762	1.502666	-0.092471	-0.199786	-0.096147	-47.574426	-78.245241	45.078929	39.979009522	116.339143306	39.085894
24704	5491999	9.377117	-1.705255	1.530564	-0.111069	-0.206082	-0.094777	-47.652085	-78.275979	45.141922	39.979009521	116.339143306	39.085849
24705	5492024	9.375702	-1.714923	1.545123	-0.132377	-0.221084	-0.086255	-47.744819	-78.307242	45.217185	39.979009521	116.339143306	39.085804
24706	5492049	9.352211	-1.738386	1.555675	-0.152248	-0.231257	-0.085142	-47.846602	-78.339340	45.298774	39.979009521	116.339143306	39.085758
24707	5492074	9.330117	-1.793341	1.540887	-0.162667	-0.247815	-0.081752	-47.960523	-78.372636	45.391222	39.979009521	116.339143306	39.079575
24708	5492099	9.301191	-1.833125	1.514139	-0.169797	-0.254433	-0.075197	-48.082550	-78.405829	45.490892	39.979009520	116.339143306	39.079520
24709	5492124	9.288763	-1.867482	1.503396	-0.179760	-0.261581	-0.074580	-48.210658	-78.439596	45.595302	39.979009520	116.339143305	39.079464
24710	5492149	9.277678	-1.916993	1.504534	-0.170571	-0.262406	-0.069849	-48.340768	-78.472889	45.703085	39.979009520	116.339143305	39.079407
24711	5492174	9.259748	-1.923904	1.499203	-0.161360	-0.264888	-0.073302	-48.469937	-78.506739	45.811242	39.979009519	116.339143305	39.079348
24712	5492199	9.267940	-1.954212	1.512424	-0.150639	-0.265770	-0.068182	-48.601127	-78.540073	45.923014	39.979009519	116.339143305	39.079287
24713	5492224	9.274756	-1.990021	1.524255	-0.138710	-0.267625	-0.072111	-48.730462	-78.573955	46.034624	39.979009518	116.339143304	39.079225
24714	5492249	9.274675	-2.018977	1.540126	-0.123359	-0.277378	-0.069782	-48.864618	-78.608455	46.153382	39.979009518	116.339143304	39.079162
24715	5492274	9.255452	-2.012005	1.520189	-0.102471	-0.275283	-0.071757	-48.994490	-78.642917	46.270808	39.979009517	116.339143304	39.076084
24716	5492299	9.249978	-2.014700	1.504201	-0.077866	-0.281516	-0.070614	-49.125489	-78.677788	46.392963	39.979009517	116.339143303	39.076015
24717	5492324	9.230608	-1.998335	1.538840	-0.061148	-0.283059	-0.070675	-49.255678	-78.712755	46.516721	39.979009516	116.339143303	39.075944
24718	5492349	9.234840	-1.963863	1.521652	-0.044006	-0.289176	-0.066884	-49.389314	-78.747825	46.646481	39.979009516	116.339143303	39.075872
24719	5492374	9.229415	-1.951367	1.496443	-0.028142	-0.292419	-0.066063	-49.523660	-78.783049	46.779265	39.979009515	116.339143302	39.075798
24720	5492399	9.248821	-1.910021	1.475323	-0.009385	-0.296555	-0.069372	-49.656885	-78.818957	46.913630	39.979009514	116.339143302	39.075723
24721	5492424	9.258577	-1.860415	1.455534	0.005630	-0.290054	-0.066175	-49.786707	-78.853853	47.046702	39.979009514	116.339143301	39.075645
24722	5492449	9.236617	-1.823220	1.439704	0.013976	-0.291762	-0.065164	-49.917581	-78.888738	47.182048	39.979009513	116.339143301	39.075567
24723	5492474	9.243570	-1.786077	1.441143	0.026481	-0.289021	-0.059342	-50.048694	-78.922672	47.319447	39.979009512	116.339143300	39.071546
24724	5492499	9.242213	-1.773670	1.437200	0.031094	-0.293276	-0.055279	-50.184274	-78.956489	47.462056	39.979009511	116.339143300	39.071460
24725	5492524	9.246415	-1.740588	1.428018	0.038341	-0.290044	-0.054845	-50.318039	-78.989897	47.603856	39.979009511	116.339143299	39.071372
24726	5492549	9.261600	-1.719969	1.432050	0.044072	-0.295983	-0.057058	-50.454160	-79.024028	47.748876	39.979009510	116.339143299	39.071282
24727	5492574	9.257508	-1.682835	1.436164	0.044522	-0.302027	-0.053903	-50.596033	-79.058293	47.899804	39.979009509	116.339143298	39.071190
24728	5492599	9.216274	-1.640126	1.420325	0.044042	-0.312077	-0.055538	-50.743907	-79.093579	48.056756	39.979009508	116.339143298	39.071096
24729	5492624	9.230183	-1.590522	1.396564	0.030577	-0.315437	-0.048405	-50.899998	-79.128299	48.220094	39.979009507	116.339143297	39.071000
24730	5492649	9.228961	-1.562819	1.351407	0.027329	-0.326292	-0.048923	-51.063649	-79.163968	48.390635	39.979009506	116.339143296	39.070902
24731	5492674	9.222168	-1.539325	1.326220	0.018525	-0.335187	-0.042383	-51.237945	-79.199612	48.570710	39.979009506	116.339143296	39.061939
24732	5492699	9.226407	-1.508960	1.301085	0.006247	-0.347905	-0.041272	-51.423182	-79.236164	48.760111	39.979009505	116.339143295	39.061827
24733	5492724	9.226484	-1.501966	1.270491	-0.008479	-0.350614	-0.033209	-51.617194	-79.271936	48.956274	39.979009504	116.339143294	39.061713
24734	5492749	9.237569	-1.504630	1.249209	-0.026520	-0.359367	-0.030448	-51.821608	-79.308047	49.160370	39.979009503	116.339143294	39.061597
24735	5492774	9.276303	-1.490663	1.192144	-0.047676	-0.362138	-0.030924	-52.031876	-79.344319	49.367315	39.979009502	116.339143293	39.061479
24736	5492799	9.313453	-1.505857	1.205384	-0.074020	-0.362849	-0.026035	-52.250056	-79.379957	49.578447	39.979009501	116.339143292	39.061358
24737	5492824	9.313535	-1.497484	1.174819	-0.097911	-0.366746	-0.029741	-52.473741	-79.416205	49.791672	39.979009500	116.339143292	39.061236
24738	5492849	9.328711	-1.505716	1.166805	-0.129548	-0.375524	-0.021742	-52.712559	-79.452149	50.015657	39.979009499	116.339143291	39.061112
24739	5492874	9.350804	-1.512494	1.138889	-0.151055	-0.379485	-0.021341	-52.958664	-79.488215	50.243894	39.979009498	116.339143290	39.058373
24740	5492899	9.371526	-1.501465	1.128303	-0.178696	-0.384137	-0.012872	-53.217174	-79.523528	50.480693	39.979009498	116.339143289	39.058243
24743	5492924	9.382590	-1.532969	1.092302	-0.194104	-0.383568	-0.010163	-53.480456	-79.558284	50.720076	39.979009497	116.339143289	39.058112
24744	5492949	9.436344	-1.570036	1.068270	-0.215563	-0.387614	-0.011207	-53.750549	-79.593301	50.963230	39.979009496	116.339143288	39.057979
24745	5492974	9.458302	-1.604482	1.082801	-0.227168	-0.391586	-0.010729	-54.024985	-79.629676	51.221404	39.979009573	116.339143021	39.069637
24746	5492999	9.503705	-1.658138	1.073352	-0.240988	-0.396733	-0.004539	-54.311095	-79.664258	51.477083	39.979009572	116.339143020	39.069537
24747	5493024	9.523004	-1.702038	1.047957	-0.254539	-0.395650	-0.013326	-54.596247	-79.699544	51.729787	39.979009571	116.339143019	39.069437
24748	5493049	9.540923	-1.711654	1.037283	-0.269708	-0.397797	-0.017975	-54.884686	-79.735325	51.983595	39.979009570	116.339143019	39.069336
24749	5493074	9.512000	-1.747352	1.007898	-0.294086	-0.398050	-0.011751	-55.181495	-79.770164	52.242332	39.979009569	116.339143018	39.065385
24750	5493099	9.499564	-1.783087	1.005102	-0.316268	-0.392313	-0.011805	-55.479584	-79.804302	52.499113	39.979009568	116.339143017	39.065280
24751	5493124	9.521619	-1.832493	0.970399	-0.337900	-0.392786	-0.011408	-55.783119	-79.838193	52.758251	39.979009567	116.339143016	39.065174
24752	5493149	9.550487	-1.864183	0.974320	-0.347416	-0.382663	-0.006142	-56.085512	-79.870403	53.014818	39.979009565	116.339143015	39.065068
24753	5493174	9.568389	-1.924613	0.950189	-0.356741	-0.374170	-0.003389	-56.386553	-79.901372	53.268630	39.979009564	116.339143014	39.064963
24754	5493199	9.582099	-2.011195	0.924654	-0.366129	-0.352518	-0.011286	-56.672542	-79.931344	53.505763	39.979009563	116.339143014	39.064857
24755	5493224	9.572360	-2.066268	0.932440	-0.368617	-0.339140	-0.015968	-56.949302	-79.960625	53.733139	39.979009562	116.339143013	39.064750
24756	5493249	9.537961	-2.030477	0.931185	-0.360243	-0.319842	-0.022528	-57.210279	-79.989005	53.945686	39.979009561	116.339143012	39.064644
24757	5493274	9.551652	-2.066339	0.947045	-0.354622	-0.306296	-0.028220	-57.460005	-80.016860	54.147608	39.979009559	116.339143011	39.063663
24758	5493299	9.561222	-2.081535	0.964301	-0.347203	-0.294514	-0.020809	-57.705030	-80.042762	54.345819	39.979009558	116.339143010	39.063556
24759	5493324	9.596871	-2.129849	1.013348	-0.325142	-0.291763	-0.025795	-57.943968	-80.068913	54.541041	39.979009557	116.339143009	39.063450
24760	5493349	9.595581	-2.077565	1.002876	-0.312951	-0.283740	-0.030987	-58.174459	-80.094950	54.729447	39.979009555	116.339143008	39.063343
24761	5493374	9.573556	-2.055543	1.008274	-0.287667	-0.283727	-0.027956	-58.403718	-80.120485	54.920263	39.979009554	116.339143007	39.063237
24762	5493399	9.552959	-2.047200	0.985673	-0.254554	-0.280176	-0.029270	-58.626247	-80.145787	55.109048	39.979009552	116.339143007	39.063131
24763	5493424	9.536488	-2.027877	0.968448	-0.224335	-0.278477	-0.031683	-58.843261	-80.171132	55.296614	39.979009551	116.339143006	39.063025
24764	5493449	9.527016	-1.998793	0.916674	-0.180456	-0.269270	-0.031532	-59.048541	-80.195661	55.478636	39.979009549	116.339143005	39.062918
24765	5493474	9.533924	-2.017986	0.900642	-0.146428	-0.275777	-0.034906	-59.253119	-80.220972	55.664879	39.979009548	116.339143004	39.060048
24766	5493499	9.575407	-1.994406	0.858199	-0.113857	-0.261648	-0.041704	-59.441020	-80.245979	55.838918	39.979009546	116.339143003	39.059939
24767	5493524	9.586467	-1.990250	0.839610	-0.085865	-0.252645	-0.052002	-59.614991	-80.271511	56.002880	39.979009545	116.339143002	39.059829
24768	5493549	9.574215	-1.932372	0.817195	-0.056185	-0.245900	-0.048061	-59.782371	-80.295985	56.164455	39.979009543	116.339143001	39.059720
24769	5493574	9.603257	-1.910244	0.785356	-0.038493	-0.232214	-0.051960	-59.936453	-80.319881	56.315099	39.979009541	116.339143000	39.059610
24770	5493599	9.589643	-1.842714	0.760306	-0.028631	-0.224099	-0.047486	-60.085830	-80.342574	56.462393	39.979009539	116.339142999	39.059501
24771	5493624	9.621268	-1.863418	0.773534	-0.015453	-0.219822	-0.048955	-60.230266	-80.365081	56.606579	39.979009538	116.339142998	39.059392
24772	5493649	9.701192	-1.844193	0.780316	-0.010951	-0.215554	-0.055839	-60.368713	-80.388082	56.745337	39.979009536	116.339142997	39.059283
24773	5493674	9.715102	-1.789072	0.760533	-0.012024	-0.213169	-0.057673	-60.505451	-80.411087	56.882194	39.979009534	116.339142996	39.062286
24774	5493699	9.735818	-1.787655	0.743275	-0.020105	-0.211363	-0.056542	-60.643136	-80.433769	57.018830	39.979009532	116.339142995	39.062181
24775	5493724	9.767713	-1.717325	0.706284	-0.027007	-0.205790	-0.065786	-60.774473	-80.457162	57.148016	39.979009531	116.339142994	39.062077
24776	5493749	9.763699	-1.670475	0.683819	-0.036854	-0.206266	-0.060642	-60.910352	-80.479894	57.280368	39.979009529	116.339142993	39.061974
24777	5493774	9.774875	-1.619423	0.649451	-0.059371	-0.197133	-0.070766	-61.039062	-80.503209	57.402173	39.979009527	116.339142993	39.061871
24778	5493799	9.773678	-1.566979	0.611021	-0.082381	-0.191528	-0.071330	-61.167236	-80.526162	57.520085	39.979009525	116.339142992	39.061770
24779	5493824	9.762733	-1.531171	0.599201	-0.105602	-0.179625	-0.062717	-61.293914	-80.547170	57.633100	39.979009523	116.339142991	39.061669
24780	5493849	9.754553	-1.511818	0.569989	-0.141695	-0.170028	-0.056714	-61.421510	-80.566722	57.741798	39.979009521	116.339142990	39.061568
24781	5493874	9.753105	-1.540754	0.585877	-0.160055	-0.155675	-0.053348	-61.542715	-80.584831	57.841347	39.979009519	116.339142989	39.061626
24782	5493899	9.753031	-1.586175	0.587043	-0.181271	-0.143352	-0.046165	-61.660950	-80.601161	57.934799	39.979009518	116.339142988	39.061527
24783	5493924	9.751611	-1.630157	0.578918	-0.196949	-0.133154	-0.048436	-61.773080	-80.617055	58.019782	39.979009516	116.339142987	39.061429
24784	5493949	9.708851	-1.652179	0.586805	-0.208174	-0.119525	-0.057976	-61.872810	-80.633205	58.090564	39.979009514	116.339142986	39.061331
24785	5493974	9.675942	-1.595671	0.555052	-0.213207	-0.105640	-0.055011	-61.964110	-80.648026	58.152069	39.979009512	116.339142986	39.061232
24786	5493999	9.543791	-1.581705	0.508507	-0.202383	-0.089243	-0.047773	-62.044440	-80.660813	58.204024	39.979009510	116.339142985	39.061134
24787	5494024	9.472183	-1.647535	0.451066	-0.197639	-0.056106	-0.049967	-62.097836	-80.671645	58.229372	39.979009508	116.339142984	39.061035
24788	5494049	9.509155	-1.757717	0.483933	-0.200641	-0.028826	-0.050327	-62.130556	-80.680693	58.233330	39.979009506	116.339142983	39.060935
24789	5494074	9.587226	-1.913560	0.583213	-0.205505	-0.016749	-0.053705	-62.153300	-80.689359	58.226473	39.979009504	116.339142982	39.059063
24790	5494099	9.624052	-1.969075	0.698751	-0.190753	-0.001143	-0.064930	-62.157292	-80.698403	58.202755	39.979009502	116.339142982	39.058961
24791	5494124	9.622399	-2.012082	0.789013	-0.174303	0.001489	-0.073104	-62.153526	-80.708306	58.173564	39.979009500	116.339142981	39.058859
24792	5494149	9.666159	-2.074367	0.887214	-0.152098	-0.000961	-0.078584	-62.146196	-80.719067	58.143986	39.979009498	116.339142980	39.058757
24793	5494174	9.671528	-2.070477	0.947081	-0.133798	-0.011386	-0.082457	-62.142698	-80.731016	58.120947	39.979009496	116.339142979	39.058657
24794	5494199	9.676998	-2.070539	0.963036	-0.109483	-0.018625	-0.080940	-62.141929	-80.743256	58.104203	39.979009493	116.339142979	39.058557
24795	5494224	9.694874	-2.099455	0.960282	-0.096278	-0.025588	-0.078879	-62.145510	-80.755702	58.093782	39.979009491	116.339142978	39.058458
24796	5494249	9.736250	-2.114473	0.932336	-0.079909	-0.037505	-0.072952	-62.158460	-80.768195	58.095231	39.979009489	116.339142977	39.058359
24797	5494274	9.692335	-2.090850	0.876548	-0.071353	-0.042465	-0.068730	-62.175813	-80.780485	58.102381	39.979009487	116.339142976	39.054590
24798	5494299	9.680059	-2.112649	0.812628	-0.067915	-0.047098	-0.068383	-62.196470	-80.793040	58.113378	39.979009484	116.339142975	39.054490
24799	5494324	9.655400	-2.091823	0.764828	-0.070207	-0.045602	-0.066014	-62.217306	-80.805194	58.124223	39.979009482	116.339142974	39.054390
24800	5494349	9.579763	-2.090212	0.707624	-0.069474	-0.040281	-0.058214	-62.237126	-80.816004	58.134144	39.979009480	116.339142973	39.054291
24801	5494374	9.563162	-2.095805	0.730209	-0.065261	-0.032710	-0.048502	-62.254444	-80.825077	58.142143	39.979009477	116.339142973	39.054190
24802	5494399	9.561789	-2.097140	0.726212	-0.049542	-0.018984	-0.045809	-62.259865	-80.832894	58.140369	39.979009475	116.339142972	39.054090
24803	5494424	9.565981	-2.064111	0.722327	-0.026862	-0.016916	-0.045694	-62.260459	-80.840558	58.136999	39.979009472	116.339142971	39.053991
24804	5494449	9.557781	-2.039337	0.710463	-0.011857	-0.004013	-0.046782	-62.248298	-80.847499	58.122885	39.979009470	116.339142970	39.053891
24805	5494474	9.585357	-2.033783	0.711804	0.010389	0.006215	-0.044411	-62.225859	-80.853457	58.101589	39.979009467	116.339142969	39.051192
24806	5494499	9.600594	-1.993836	0.697319	0.022890	0.013946	-0.043941	-62.195710	-80.858838	58.074297	39.979009464	116.339142968	39.051090
24807	5494524	9.575949	-1.975765	0.645489	0.030005	0.024743	-0.050564	-62.153248	-80.864332	58.035567	39.979009462	116.339142967	39.050987
24808	5494549	9.563611	-1.928972	0.645629	0.034425	0.038221	-0.056581	-62.096978	-80.869681	57.983494	39.979009459	116.339142966	39.050885
24809	5494574	9.565056	-1.901406	0.636420	0.031847	0.050287	-0.052206	-62.033341	-80.873658	57.923585	39.979009456	116.339142965	39.050782
24810	5494599	9.545886	-1.844945	0.625955	0.019023	0.057657	-0.060493	-61.962210	-80.878176	57.854227	39.979009453	116.339142965	39.050678
24811	5494624	9.519783	-1.814637	0.608739	0.011666	0.071600	-0.062074	-61.880423	-80.881939	57.773009	39.979009451	116.339142964	39.050575
24812	5494649	9.530756	-1.783123	0.646097	-0.014839	0.076327	-0.058323	-61.800229	-80.884890	57.689562	39.979009448	116.339142963	39.050471
24813	5494674	9.490855	-1.736352	0.648878	-0.036049	0.080791	-0.066486	-61.716057	-80.888550	57.599008	39.979009445	116.339142962	39.053743
24814	5494699	9.479962	-1.697718	0.622379	-0.069758	0.084348	-0.060967	-61.636190	-80.891252	57.507926	39.979009442	116.339142961	39.053640
24815	5494724	9.437362	-1.648099	0.605240	-0.114617	0.088927	-0.051761	-61.563020	-80.892463	57.417119	39.979009439	116.339142960	39.053536
24816	5494749	9.405703	-1.641160	0.591953	-0.155097	0.095148	-0.046298	-61.493074	-80.892543	57.323704	39.979009436	116.339142959	39.053431
24817	5494774	9.402812	-1.661989	0.638431	-0.187162	0.099014	-0.041333	-61.426811	-80.891716	57.229368	39.979009433	116.339142959	39.053324
24818	5494799	9.416482	-1.695073	0.660939	-0.214131	0.102979	-0.041360	-61.361303	-80.890603	57.131885	39.979009430	116.339142958	39.053216
24819	5494824	9.414938	-1.726934	0.710001	-0.243080	0.098972	-0.036363	-61.305245	-80.889122	57.039772	39.979009428	116.339142957	39.053107
24820	5494849	9.450638	-1.760061	0.740520	-0.253867	0.096032	-0.034872	-61.253699	-80.887642	56.950663	39.979009425	116.339142956	39.052996
24821	5494874	9.422998	-1.778025	0.764376	-0.256853	0.082375	-0.039983	-61.211090	-80.887733	56.870172	39.979009422	116.339142955	39.056215
24822	5494899	9.440877	-1.793181	0.769655	-0.257601	0.075042	-0.038218	-61.175082	-80.888100	56.796259	39.979009419	116.339142954	39.056106
24823	5494924	9.447763	-1.765742	0.785688	-0.240557	0.063939	-0.041029	-61.144100	-80.889580	56.729908	39.979009415	116.339142953	39.055995
24824	5494949	9.479447	-1.741025	0.807095	-0.224537	0.061414	-0.042979	-61.111940	-80.891474	56.664689	39.979009412	116.339142953	39.055884
24825	5494974	9.522203	-1.739627	0.788493	-0.198658	0.050399	-0.043519	-61.084434	-80.894193	56.607936	39.979009409	116.339142952	39.055772
24826	5494999	9.575999	-1.694213	0.792691	-0.170632	0.037915	-0.048569	-61.060468	-80.898406	56.558837	39.979009406	116.339142951	39.055660
24827	5495024	9.587144	-1.670696	0.756853	-0.145176	0.032678	-0.057107	-61.033219	-80.904048	56.510105	39.979009403	116.339142950	39.055547
24828	5495049	9.653412	-1.651295	0.719752	-0.122359	0.033978	-0.057365	-61.001524	-80.909629	56.460182	39.979009400	116.339142949	39.055434
24829	5495074	9.705808	-1.641630	0.707839	-0.108287	0.034407	-0.065431	-60.963917	-80.916185	56.406314	39.979009397	116.339142948	39.053646
24830	5495099	9.748621	-1.589333	0.701363	-0.097661	0.035574	-0.067295	-60.922997	-80.922888	56.350632	39.979009393	116.339142947	39.053532
24831	5495124	9.791476	-1.525973	0.680338	-0.093426	0.035883	-0.075756	-60.877460	-80.930622	56.290891	39.979009390	116.339142946	39.053419
24832	5495149	9.874288	-1.415933	0.688712	-0.089361	0.035341	-0.069927	-60.834228	-80.937656	56.234075	39.979009387	116.339142946	39.053307
24833	5495174	9.941869	-1.352687	0.699618	-0.091098	0.033198	-0.069624	-60.792981	-80.944796	56.179018	39.979009384	116.339142945	39.053197
24834	5495199	10.032885	-1.279850	0.713209	-0.094964	0.031444	-0.072730	-60.752224	-80.952441	56.123897	39.979009381	116.339142944	39.053088
24835	5495224	10.094990	-1.198684	0.722779	-0.106663	0.027394	-0.069103	-60.717840	-80.959910	56.073534	39.979009377	116.339142943	39.052982
24836	5495249	10.146004	-1.172589	0.725590	-0.120762	0.023705	-0.063232	-60.690895	-80.966901	56.028660	39.979009374	116.339142942	39.052877
24837	5495274	10.216435	-1.091345	0.705960	-0.135338	0.016096	-0.068496	-60.669639	-80.975079	55.987432	39.979009371	116.339142941	39.060124
24838	5495299	10.277284	-1.016875	0.663674	-0.145966	0.014931	-0.066814	-60.651509	-80.983127	55.947830	39.979009368	116.339142940	39.060033
24839	5495324	10.335140	-0.997701	0.683693	-0.171870	0.005861	-0.064678	-60.645128	-80.991544	55.916367	39.979009365	116.339142940	39.059946
24840	5495349	10.382001	-0.978474	0.690462	-0.183275	0.003673	-0.059670	-60.644291	-80.999489	55.888865	39.979009362	116.339142939	39.059863
24841	5495374	10.420570	-0.974376	0.694473	-0.198466	-0.005144	-0.057577	-60.653491	-81.007792	55.869322	39.979009359	116.339142938	39.059785
24842	5495399	10.441325	-0.913813	0.694694	-0.211355	-0.011522	-0.056854	-60.669886	-81.016453	55.855194	39.979009356	116.339142937	39.059711
24843	5495424	10.456531	-0.924718	0.664107	-0.230402	-0.014398	-0.055678	-60.691808	-81.025169	55.843901	39.979009353	116.339142936	39.059640
24846	5495449	10.446903	-0.902725	0.676103	-0.244628	-0.013427	-0.055479	-60.715100	-81.033794	55.831932	39.979009350	116.339142936	39.059574
24847	5495474	10.446943	-0.887556	0.661565	-0.265332	-0.015272	-0.053689	-60.751406	-81.040510	55.823403	39.979009642	116.339142710	39.066286
24848	5495499	10.402755	-0.926179	0.678668	-0.289191	-0.016110	-0.048216	-60.786475	-81.048416	55.816895	39.979009639	116.339142709	39.066249
24849	5495524	10.393068	-0.937167	0.690603	-0.316148	-0.013292	-0.048746	-60.822958	-81.056193	55.807909	39.979009636	116.339142709	39.066215
24850	5495549	10.376506	-0.933101	0.701296	-0.342433	-0.011514	-0.046879	-60.862646	-81.063612	55.798356	39.979009634	116.339142708	39.066186
24851	5495574	10.321378	-0.956435	0.694505	-0.365934	-0.005563	-0.045376	-60.901655	-81.070430	55.784709	39.979009631	116.339142707	39.066160
24852	5495599	10.278663	-0.919418	0.718541	-0.390556	0.003964	-0.042245	-60.938004	-81.076193	55.764799	39.979009628	116.339142706	39.066137
24853	5495624	10.274356	-0.923761	0.786333	-0.399295	0.015821	-0.039178	-60.967514	-81.080750	55.736700	39.979009625	116.339142706	39.066119
24854	5495649	10.243929	-0.906074	0.842224	-0.408503	0.026709	-0.041524	-60.988612	-81.084846	55.698751	39.979009623	116.339142705	39.066103
24855	5495674	10.183207	-0.903468	0.879463	-0.403148	0.030816	-0.038217	-61.007120	-81.088245	55.658957	39.979009620	116.339142704	39.064168
24856	5495699	10.138997	-0.899520	0.931304	-0.394505	0.041053	-0.039795	-61.015501	-81.091132	55.610165	39.979009618	116.339142704	39.064157
24857	5495724	10.035487	-0.906619	0.996392	-0.389583	0.049371	-0.034675	-61.018783	-81.092801	55.556928	39.979009615	116.339142703	39.064147
24858	5495749	10.004938	-0.922063	1.081422	-0.376475	0.053492	-0.037597	-61.015588	-81.094550	55.499034	39.979009612	116.339142702	39.064140
24859	5495774	9.985488	-0.911312	1.153264	-0.361857	0.061980	-0.041389	-61.001819	-81.096184	55.432556	39.979009610	116.339142701	39.064132
24860	5495799	9.937054	-0.893775	1.246369	-0.342458	0.068212	-0.047031	-60.977769	-81.098088	55.358486	39.979009607	116.339142700	39.064128
24861	5495824	9.911991	-0.855696	1.376795	-0.313354	0.070266	-0.046933	-60.947930	-81.099831	55.282776	39.979009605	116.339142700	39.064125
24862	5495849	9.866223	-0.834229	1.507167	-0.288568	0.072537	-0.054036	-60.909543	-81.102299	55.202008	39.979009603	116.339142699	39.064124
24863	5495874	9.794352	-0.815307	1.610898	-0.270782	0.074096	-0.050001	-60.869127	-81.104145	55.121765	39.979009600	116.339142698	39.062241
24864	5495899	9.752719	-0.824003	1.725189	-0.266470	0.066367	-0.044805	-60.836565	-81.105872	55.050097	39.979009598	116.339142697	39.062239
24865	5495924	9.715271	-0.810655	1.830284	-0.268321	0.065470	-0.041547	-60.806420	-81.107248	54.980608	39.979009595	116.339142696	39.062237
24866	5495949	9.701305	-0.809536	1.908730	-0.274250	0.054231	-0.038436	-60.787480	-81.109016	54.921601	39.979009593	116.339142695	39.062236
24867	5495974	9.676297	-0.781052	2.009848	-0.290041	0.044335	-0.035726	-60.779908	-81.111135	54.871811	39.979009591	116.339142693	39.062234
24868	5495999	9.625198	-0.740013	2.081766	-0.305909	0.028628	-0.031182	-60.789184	-81.113784	54.836773	39.979009589	116.339142692	39.062233
24869	5496024	9.591966	-0.759454	2.134887	-0.324340	0.019978	-0.029813	-60.808624	-81.116867	54.809352	39.979009586	116.339142691	39.062231
24870	5496049	9.516671	-0.592673	2.026378	-0.337690	0.021890	-0.014260	-60.835397	-81.117874	54.787417	39.979009584	116.339142689	39.062229
24871	5496074	9.730555	-0.629254	1.889428	-0.390825	0.032803	0.020799	-60.876702	-81.113736	54.772487	39.979009582	116.339142687	39.061355
24872	5496099	9.805200	-0.930253	2.169040	-0.433648	0.024831	0.026387	-60.932993	-81.109455	54.766516	39.979009580	116.339142686	39.061352
24873	5496124	9.730547	-0.907262	2.291363	-0.450583	0.012980	0.010154	-60.993957	-81.108032	54.762820	39.979009578	116.339142684	39.061350
24874	5496149	9.643663	-0.770087	2.403484	-0.452569	-0.003131	-0.009912	-61.059201	-81.110242	54.763167	39.979009576	116.339142682	39.061349
24875	5496174	9.671092	-0.634359	2.531607	-0.430582	-0.025953	-0.023621	-61.133545	-81.115751	54.775914	39.979009574	116.339142680	39.061346
24876	5496199	9.723293	-0.585195	2.627530	-0.412276	-0.053042	-0.030310	-61.224130	-81.123968	54.807751	39.979009572	116.339142678	39.061344
24877	5496224	9.748018	-0.539983	2.687575	-0.385924	-0.085674	-0.041339	-61.332470	-81.135807	54.861378	39.979009571	116.339142676	39.061344
24878	5496249	9.746683	-0.461707	2.714381	-0.370035	-0.115252	-0.045086	-61.460990	-81.150129	54.937731	39.979009569	116.339142673	39.061344
24879	5496274	9.783938	-0.428685	2.711885	-0.356576	-0.155582	-0.042681	-61.621654	-81.166871	55.048562	39.979009567	116.339142671	39.062439
24880	5496299	9.782591	-0.434101	2.695908	-0.343269	-0.183484	-0.040539	-61.804566	-81.185186	55.183830	39.979009566	116.339142668	39.062442
24881	5496324	9.837917	-0.406428	2.626887	-0.345550	-0.204593	-0.043745	-62.004319	-81.205260	55.335803	39.979009564	116.339142665	39.062445
24882	5496349	9.866957	-0.435040	2.569634	-0.361685	-0.225239	-0.034544	-62.228115	-81.225467	55.509758	39.979009562	116.339142662	39.062450
24883	5496374	9.896027	-0.426645	2.516491	-0.373453	-0.239265	-0.028017	-62.468888	-81.245669	55.699174	39.979009561	116.339142659	39.062457
24884	5496399	9.985612	-0.473262	2.479153	-0.384213	-0.247855	-0.026642	-62.719898	-81.266140	55.897379	39.979009560	116.339142656	39.062464
24885	5496424	10.071134	-0.485514	2.435303	-0.400901	-0.255287	-0.032806	-62.977915	-81.287747	56.100243	39.979009558	116.339142652	39.062474
24886	5496449	10.160887	-0.461895	2.371624	-0.412697	-0.259301	-0.039120	-63.239455	-81.310282	56.304950	39.979009557	116.339142649	39.062486
24887	5496474	10.190005	-0.441016	2.310517	-0.419681	-0.261466	-0.036213	-63.506242	-81.332440	56.513941	39.979009556	116.339142645	39.060642
24888	5496499	10.308612	-0.476566	2.242672	-0.435244	-0.257523	-0.029352	-63.776001	-81.353319	56.723670	39.979009555	116.339142642	39.060659
24889	5496524	10.405112	-0.514960	2.205355	-0.447868	-0.250460	-0.029516	-64.042661	-81.373627	56.928425	39.979009554	116.339142638	39.060680
24890	5496549	10.496073	-0.569854	2.163990	-0.458784	-0.247152	-0.029916	-64.309007	-81.393636	57.131270	39.979009553	116.339142634	39.060706
24891	5496574	10.555551	-0.602503	2.046935	-0.477836	-0.248039	-0.031702	-64.579204	-81.413788	57.335239	39.979009552	116.339142630	39.060739
24892	5496599	10.657643	-0.617419	1.992402	-0.491433	-0.234392	-0.028601	-64.841971	-81.432562	57.529714	39.979009551	116.339142626	39.060776
24893	5496624	10.736333	-0.657002	1.904587	-0.501649	-0.230221	-0.026669	-65.104374	-81.450699	57.722330	39.979009550	116.339142622	39.060818
24894	5496649	10.806663	-0.689901	1.859310	-0.519829	-0.208904	-0.024626	-65.352663	-81.467163	57.898034	39.979009549	116.339142618	39.060867
24895	5496674	10.860505	-0.755648	1.780648	-0.541478	-0.189246	-0.023174	-65.588330	-81.482158	58.057830	39.979009548	116.339142613	39.064001
24896	5496699	10.864702	-0.792622	1.732658	-0.567594	-0.169387	-0.017357	-65.813369	-81.495128	58.203093	39.979009548	116.339142609	39.064068
24897	5496724	10.872907	-0.832474	1.731189	-0.584485	-0.144640	-0.014238	-66.020923	-81.506162	58.328225	39.979009547	116.339142605	39.064141
24898	5496749	10.863265	-0.858599	1.713830	-0.594571	-0.122088	-0.013521	-66.210820	-81.515731	58.434041	39.979009546	116.339142600	39.064222
24899	5496774	10.803861	-0.900001	1.753535	-0.599884	-0.099520	-0.018808	-66.379900	-81.524644	58.518037	39.979009546	116.339142595	39.064310
24900	5496799	10.762311	-0.962095	1.803825	-0.593107	-0.085835	-0.023356	-66.534451	-81.533336	58.588324	39.979009545	116.339142591	39.064405
24901	5496824	10.702928	-0.970505	1.856968	-0.584510	-0.062215	-0.025387	-66.666339	-81.540926	58.636942	39.979009545	116.339142586	39.064506
24902	5496849	10.650306	-0.980504	1.955294	-0.570902	-0.051808	-0.032210	-66.784624	-81.548809	58.673777	39.979009544	116.339142581	39.064614
24903	5496874	10.575688	-0.989078	2.035011	-0.554191	-0.039189	-0.035115	-66.888359	-81.556353	58.698321	39.979009544	116.339142576	39.065756
24904	5496899	10.491503	-0.961792	2.104196	-0.531161	-0.037923	-0.041166	-66.985495	-81.564617	58.719530	39.979009543	116.339142571	39.065876
24905	5496924	10.434779	-0.953851	2.205253	-0.519636	-0.030205	-0.037375	-67.075654	-81.571945	58.735352	39.979009543	116.339142566	39.066001
24906	5496949	10.385020	-0.912941	2.287794	-0.489146	-0.028616	-0.038895	-67.159547	-81.579381	58.749256	39.979009543	116.339142561	39.066131
24907	5496974	10.325710	-0.884198	2.329119	-0.471160	-0.029716	-0.038508	-67.242074	-81.586824	58.764383	39.979009543	116.339142555	39.066264
24908	5496999	10.284200	-0.900901	2.390195	-0.450598	-0.016099	-0.034206	-67.311178	-81.592943	58.768918	39.979009542	116.339142550	39.066402
24909	5497024	10.206761	-0.935655	2.483106	-0.436683	-0.006244	-0.035743	-67.368946	-81.598720	58.764008	39.979009542	116.339142544	39.066544
24910	5497049	10.156915	-0.959341	2.566792	-0.424951	0.002217	-0.028680	-67.420124	-81.603098	58.754136	39.979009542	116.339142539	39.066689
24911	5497074	10.075342	-0.981699	2.665093	-0.417987	0.013453	-0.031215	-67.459307	-81.607195	58.733147	39.979009542	116.339142533	39.067821
24912	5497099	9.992408	-1.023283	2.743355	-0.406478	0.015642	-0.032201	-67.494520	-81.611304	58.709812	39.979009542	116.339142527	39.067973
24913	5497124	9.935673	-1.063459	2.813673	-0.410785	0.021370	-0.035326	-67.524051	-81.615515	58.680110	39.979009542	116.339142520	39.068127
24914	5497149	9.877653	-1.077404	2.873428	-0.425877	0.027247	-0.037779	-67.549551	-81.619731	58.644149	39.979009542	116.339142514	39.068283
24915	5497174	9.830586	-1.117561	2.935760	-0.433828	0.035158	-0.039549	-67.568416	-81.623750	58.600330	39.979009542	116.339142507	39.068439
24916	5497199	9.773938	-1.126011	2.998181	-0.445694	0.040749	-0.043866	-67.582334	-81.628038	58.549794	39.979009542	116.339142501	39.068598
24917	5497224	9.750443	-1.148098	3.011415	-0.448492	0.041786	-0.042695	-67.596137	-81.632116	58.498737	39.979009542	116.339142494	39.068758
24918	5497249	9.652379	-1.237688	3.053613	-0.463669	0.044720	-0.038670	-67.610949	-81.635502	58.446502	39.979009542	116.339142487	39.068919
24919	5497274	9.584754	-1.305122	3.052038	-0.472149	0.045817	-0.033835	-67.627769	-81.638191	58.395071	39.979009542	116.339142480	39.067039
24920	5497299	9.510352	-1.350357	3.026586	-0.473194	0.053513	-0.036117	-67.636943	-81.640764	58.335759	39.979009543	116.339142472	39.067198
24921	5497324	9.426265	-1.391617	3.019722	-0.478850	0.062168	-0.034727	-67.639625	-81.642682	58.269068	39.979009543	116.339142464	39.067357
24922	5497349	9.349093	-1.453382	2.980919	-0.481367	0.068255	-0.026955	-67.640052	-81.643238	58.199733	39.979009543	116.339142457	39.067514
24923	5497374	9.281388	-1.578591	2.983137	-0.479230	0.079048	-0.029908	-67.629340	-81.643597	58.119450	39.979009543	116.339142449	39.067669
24924	5497399	9.250984	-1.659728	2.970883	-0.474009	0.084721	-0.023773	-67.615044	-81.642832	58.036300	39.979009544	116.339142441	39.067823
24925	5497424	9.166966	-1.629459	2.980218	-0.459658	0.091869	-0.023605	-67.592323	-81.641650	57.946711	39.979009544	116.339142432	39.067976
24926	5497449	9.074750	-1.630679	2.934955	-0.438227	0.097449	-0.021622	-67.562260	-81.639895	57.852805	39.979009544	116.339142424	39.068126
24927	5497474	8.994847	-1.659435	2.910892	-0.397541	0.104904	-0.019927	-67.520316	-81.637499	57.752779	39.979009544	116.339142415	39.064251
24928	5497499	8.906722	-1.712870	2.858787	-0.361745	0.113404	-0.016573	-67.466894	-81.634181	57.646335	39.979009544	116.339142406	39.064391
24929	5497524	8.902716	-1.715411	2.801620	-0.328006	0.124703	-0.025441	-67.395227	-81.631397	57.526332	39.979009545	116.339142397	39.064527
24930	5497549	8.891872	-1.669836	2.759194	-0.279477	0.136103	-0.026643	-67.305987	-81.628120	57.395592	39.979009545	116.339142388	39.064659
24931	5497574	8.890747	-1.538990	2.730371	-0.208044	0.136966	-0.034577	-67.202833	-81.625811	57.261131	39.979009545	116.339142379	39.064787
24932	5497599	8.829132	-1.374972	2.679003	-0.123107	0.137475	-0.051333	-67.080777	-81.625646	57.119860	39.979009545	116.339142369	39.064911
24933	5497624	8.657378	-1.293224	2.524944	-0.023274	0.142466	-0.060247	-66.936561	-81.626330	56.970645	39.979009546	116.339142359	39.065030
24934	5497649	8.645107	-1.385038	2.411623	0.041582	0.154491	-0.056350	-66.773773	-81.625765	56.812047	39.979009546	116.339142349	39.065143
24935	5497674	8.726279	-1.437432	2.439370	0.073729	0.171670	-0.054723	-66.591689	-81.623944	56.638599	39.979009546	116.339142340	39.062284
24936	5497699	8.894185	-1.429512	2.524600	0.103885	0.181979	-0.063103	-66.392917	-81.622549	56.452650	39.979009546	116.339142329	39.062384
24937	5497724	9.059440	-1.377520	2.594001	0.127435	0.184411	-0.072724	-66.184898	-81.622180	56.260762	39.979009547	116.339142319	39.062480
24938	5497749	9.135320	-1.319746	2.588895	0.147758	0.176162	-0.079410	-65.978670	-81.623065	56.073627	39.979009547	116.339142309	39.062574
24939	5497774	9.143902	-1.214951	2.526745	0.162770	0.161643	-0.081293	-65.782381	-81.624950	55.898714	39.979009547	116.339142298	39.062666
24940	5497799	9.162093	-1.119796	2.468574	0.181663	0.150596	-0.068425	-65.598270	-81.625722	55.738844	39.979009548	116.339142287	39.062754
24941	5497824	9.158313	-1.001166	2.393164	0.196153	0.138026	-0.067610	-65.423506	-81.627060	55.590521	39.979009548	116.339142277	39.062839
24942	5497849	9.190401	-0.868766	2.312486	0.215684	0.123197	-0.061087	-65.261661	-81.628373	55.458085	39.979009549	116.339142266	39.062921
24943	5497874	9.227795	-0.794323	2.279525	0.243679	0.105008	-0.073493	-65.106743	-81.632339	55.336704	39.979009549	116.339142255	39.059073
24944	5497899	9.352099	-0.708781	2.212040	0.258327	0.094962	-0.086387	-64.953151	-81.638539	55.218785	39.979009549	116.339142243	39.059146
24947	5497924	9.477899	-0.595587	2.116723	0.257376	0.078990	-0.101602	-64.807280	-81.647638	55.108535	39.979009550	116.339142232	39.059217
24948	5497949	9.515599	-0.441073	1.998966	0.226596	0.064538	-0.115351	-64.672560	-81.659363	55.005102	39.979009551	116.339142221	39.059287
24949	5497974	9.571326	-0.228734	1.877308	0.186566	0.054851	-0.117734	-64.495064	-81.673292	55.089213	39.979009377	116.339142429	39.061665
24950	5497999	9.585378	-0.143215	1.821733	0.128275	0.041853	-0.118120	-64.392556	-81.686699	55.004109	39.979009377	116.339142418	39.061739
24951	5498024	9.638005	-0.045361	1.770217	0.061950	0.030425	-0.120579	-64.308319	-81.701112	54.927872	39.979009378	116.339142407	39.061813
24952	5498049	9.612144	0.049865	1.698737	-0.018787	0.012714	-0.127807	-64.247981	-81.717544	54.864103	39.979009378	116.339142395	39.061886
24953	5498074	9.583452	0.153191	1.661825	-0.113983	-0.005791	-0.113882	-64.223451	-81.733325	54.822741	39.979009379	116.339142384	39.059113
24954	5498099	9.583600	0.206953	1.634045	-0.203799	-0.034635	-0.107837	-64.239921	-81.750123	54.809811	39.979009380	116.339142372	39.059180
24955	5498124	9.591740	0.146370	1.648489	-0.288191	-0.064251	-0.106086	-64.295663	-81.768537	54.824349	39.979009381	116.339142361	39.059246
24956	5498149	9.585064	0.194762	1.591426	-0.361776	-0.102390	-0.104180	-64.397058	-81.789068	54.874363	39.979009382	116.339142349	39.059310
24957	5498174	9.550830	0.166292	1.483648	-0.433384	-0.128476	-0.106424	-64.531574	-81.811484	54.947476	39.979009383	116.339142338	39.059372
24958	5498199	9.599229	0.161022	1.414485	-0.496125	-0.161698	-0.109907	-64.704140	-81.836363	55.049943	39.979009384	116.339142326	39.059433
24959	5498224	9.598027	0.116016	1.314607	-0.545432	-0.183213	-0.114179	-64.902305	-81.863061	55.171132	39.979009385	116.339142314	39.059493
24960	5498249	9.609082	0.037781	1.257215	-0.594449	-0.201963	-0.116377	-65.124712	-81.891115	55.309706	39.979009386	116.339142302	39.059551
24961	5498274	9.617429	-0.034823	1.177196	-0.639157	-0.213972	-0.120805	-65.363928	-81.920386	55.458781	39.979009387	116.339142291	39.057779
24962	5498299	9.609279	-0.103336	1.095847	-0.675297	-0.224666	-0.129828	-65.615813	-81.951379	55.615412	39.979009389	116.339142279	39.057833
24963	5498324	9.603822	-0.165000	1.030514	-0.700238	-0.232966	-0.131217	-65.879973	-81.982942	55.780818	39.979009390	116.339142267	39.057885
24964	5498349	9.588704	-0.241830	0.971728	-0.707570	-0.232270	-0.139834	-66.142659	-82.015486	55.943664	39.979009392	116.339142255	39.057936
24965	5498374	9.607985	-0.316002	0.932924	-0.717361	-0.233594	-0.144061	-66.407991	-82.048555	56.107751	39.979009393	116.339142243	39.057986
24966	5498399	9.624478	-0.419064	0.887401	-0.712888	-0.228919	-0.145036	-66.669648	-82.081381	56.268762	39.979009395	116.339142231	39.058035
24967	5498424	9.672553	-0.540096	0.876380	-0.710060	-0.227378	-0.151680	-66.928488	-82.114894	56.427325	39.979009397	116.339142219	39.058083
24968	5498449	9.705657	-0.630656	0.808303	-0.709237	-0.219294	-0.149857	-67.181983	-82.147617	56.580599	39.979009399	116.339142207	39.058130
24969	5498474	9.708280	-0.770875	0.778574	-0.697489	-0.203382	-0.153615	-67.418660	-82.179867	56.718583	39.979009400	116.339142196	39.059297
24970	5498499	9.727384	-0.893359	0.780849	-0.679889	-0.190094	-0.154370	-67.641190	-82.211413	56.844821	39.979009402	116.339142184	39.059345
24971	5498524	9.743646	-1.020105	0.813672	-0.663445	-0.173925	-0.157711	-67.845704	-82.242461	56.955244	39.979009404	116.339142172	39.059392
24972	5498549	9.795927	-1.153383	0.768083	-0.645623	-0.156146	-0.159538	-68.030798	-82.272745	57.048637	39.979009406	116.339142160	39.059441
24973	5498574	9.772232	-1.273255	0.808885	-0.618363	-0.139752	-0.167577	-68.193772	-82.303183	57.123641	39.979009407	116.339142148	39.059491
24974	5498599	9.766675	-1.303496	0.807437	-0.594465	-0.122486	-0.173065	-68.335030	-82.333408	57.180181	39.979009409	116.339142136	39.059540
24975	5498624	9.741588	-1.423405	0.848248	-0.559059	-0.098179	-0.169790	-68.449128	-82.361899	57.214431	39.979009411	116.339142123	39.059590
24976	5498649	9.723386	-1.526804	0.909070	-0.530452	-0.081098	-0.174612	-68.540740	-82.390126	57.230127	39.979009413	116.339142111	39.059640
24977	5498674	9.681867	-1.571007	0.958101	-0.506169	-0.067723	-0.173172	-68.616431	-82.417459	57.233267	39.979009415	116.339142099	39.058823
24978	5498699	9.655499	-1.649562	0.983093	-0.469975	-0.052691	-0.170577	-68.673115	-82.443662	57.222464	39.979009416	116.339142087	39.058872
24979	5498724	9.604254	-1.744700	1.033245	-0.440832	-0.041145	-0.168093	-68.715100	-82.468933	57.201045	39.979009418	116.339142075	39.058922
24980	5498749	9.546142	-1.794465	1.103557	-0.405316	-0.019585	-0.165634	-68.731190	-82.492756	57.158639	39.979009420	116.339142063	39.058972
24981	5498774	9.503272	-1.811152	1.157996	-0.356884	-0.009006	-0.158466	-68.732335	-82.515074	57.108159	39.979009422	116.339142050	39.059020
24982	5498799	9.420408	-1.853982	1.209682	-0.311112	0.006066	-0.163724	-68.709325	-82.537309	57.039932	39.979009423	116.339142038	39.059068
24983	5498824	9.323720	-1.917492	1.267912	-0.265627	0.018509	-0.163063	-68.667071	-82.558803	56.958871	39.979009425	116.339142025	39.059115
24984	5498849	9.234113	-1.874985	1.310568	-0.209539	0.034767	-0.169499	-68.597181	-82.580297	56.858046	39.979009427	116.339142013	39.059160
24985	5498874	9.185832	-1.828341	1.358560	-0.159152	0.050655	-0.175221	-68.500947	-82.601703	56.737937	39.979009428	116.339142000	39.055399
24986	5498899	9.116996	-1.769227	1.373348	-0.110251	0.066128	-0.191775	-68.374407	-82.624468	56.594340	39.979009430	116.339141987	39.055435
24987	5498924	9.108655	-1.682851	1.448115	-0.078520	0.089058	-0.191732	-68.218865	-82.645968	56.426088	39.979009431	116.339141975	39.055467
24988	5498949	9.097429	-1.668060	1.542544	-0.057539	0.106406	-0.176419	-68.047829	-82.664446	56.245253	39.979009433	116.339141962	39.055497
24989	5498974	9.084621	-1.698893	1.686043	-0.034922	0.119920	-0.170779	-67.861072	-82.681376	56.051840	39.979009434	116.339141949	39.055523
24990	5498999	9.091194	-1.737797	1.790966	-0.012973	0.125828	-0.160481	-67.668555	-82.696538	55.855798	39.979009436	116.339141936	39.055547
24991	5499024	9.067564	-1.707913	1.894780	0.017001	0.130501	-0.163585	-67.464770	-82.711770	55.652729	39.979009437	116.339141923	39.055567
24992	5499049	9.048099	-1.646416	2.002644	0.053577	0.121458	-0.150581	-67.269892	-82.725691	55.463929	39.979009439	116.339141909	39.055584
24993	5499074	9.068624	-1.609571	2.083923	0.090174	0.119770	-0.142172	-67.074463	-82.738514	55.279864	39.979009440	116.339141896	39.053835
24994	5499099	9.069973	-1.593097	2.105262	0.134498	0.112218	-0.138927	-66.881270	-82.751253	55.104457	39.979009441	116.339141882	39.053844
24995	5499124	9.076823	-1.532768	2.158643	0.179259	0.102223	-0.141391	-66.690269	-82.764807	54.937729	39.979009443	116.339141869	39.053850
24996	5499149	9.092076	-1.444791	2.173541	0.222844	0.092332	-0.133114	-66.506334	-82.777766	54.784421	39.979009444	116.339141855	39.053852
24997	5499174	9.118390	-1.402032	2.144456	0.264651	0.072740	-0.121377	-66.341450	-82.790248	54.656358	39.979009446	116.339141841	39.053852
24998	5499199	9.136425	-1.353796	2.120708	0.288442	0.058827	-0.112495	-66.191158	-82.802324	54.546440	39.979009447	116.339141827	39.053848
24999	5499224	9.172416	-1.294484	2.091654	0.300901	0.043425	-0.110558	-66.055531	-82.815004	54.453106	39.979009448	116.339141813	39.053841
25000	5499249	9.176778	-1.244735	2.020029	0.299446	0.039689	-0.102007	-65.927559	-82.826756	54.367280	39.979009450	116.339141799	39.053832
25001	5499274	9.179776	-1.204540	1.952322	0.283852	0.029358	-0.090671	-65.817515	-82.837610	54.297271	39.979009451	116.339141784	39.044187
25002	5499299	9.189590	-1.167224	1.907233	0.248536	0.022173	-0.086603	-65.721641	-82.848338	54.236449	39.979009453	116.339141770	39.044162
25003	5499324	9.194082	-1.041740	1.831843	0.204498	0.011663	-0.084801	-65.643642	-82.859439	54.187286	39.979009454	116.339141755	39.044135
25004	5499349	9.204097	-0.899770	1.768493	0.173700	0.002594	-0.075224	-65.583849	-82.869820	54.152027	39.979009456	116.339141741	39.044104
25005	5499374	9.190639	-0.811408	1.691663	0.136624	-0.013690	-0.073110	-65.547238	-82.880886	54.134779	39.979009457	116.339141726	39.044070
25006	5499399	9.206116	-0.723045	1.610861	0.104661	-0.018272	-0.064614	-65.523956	-82.891115	54.126349	39.979009459	116.339141711	39.044034
25007	5499424	9.209195	-0.645677	1.529997	0.077182	-0.026716	-0.059347	-65.515917	-82.901159	54.129314	39.979009460	116.339141696	39.043994
25008	5499449	9.219155	-0.575194	1.443758	0.049527	-0.034408	-0.050434	-65.524151	-82.910497	54.144686	39.979009462	116.339141681	39.043951
25009	5499474	9.268985	-0.551497	1.365459	0.024328	-0.039503	-0.045846	-65.543570	-82.919539	54.167691	39.979009463	116.339141666	39.042406
25010	5499499	9.283048	-0.490665	1.285872	0.008197	-0.040229	-0.041065	-65.568399	-82.928000	54.193819	39.979009465	116.339141651	39.042355
25011	5499524	9.302588	-0.484801	1.192815	-0.018124	-0.044106	-0.031453	-65.605732	-82.935434	54.228747	39.979009467	116.339141636	39.042302
25012	5499549	9.330389	-0.467937	1.101109	-0.037338	-0.044444	-0.022417	-65.650562	-82.941706	54.268457	39.979009469	116.339141621	39.042246
25013	5499574	9.354041	-0.470336	1.005397	-0.049827	-0.043529	-0.025599	-65.694776	-82.948336	54.305742	39.979009470	116.339141605	39.042187
25014	5499599	9.384598	-0.483689	0.896338	-0.058062	-0.036378	-0.023527	-65.733677	-82.954271	54.336485	39.979009472	116.339141590	39.042126
25015	5499624	9.413709	-0.502657	0.815180	-0.062524	-0.028318	-0.023694	-65.764672	-82.959751	54.358616	39.979009474	116.339141575	39.042062
25016	5499649	9.430407	-0.484572	0.760732	-0.058326	-0.014369	-0.024047	-65.780172	-82.964456	54.365742	39.979009476	116.339141560	39.041996
25017	5499674	9.481547	-0.521397	0.674221	-0.057837	0.000905	-0.025254	-65.778863	-82.968422	54.356002	39.979009478	116.339141544	39.043459
25018	5499699	9.509090	-0.566713	0.652797	-0.046374	0.014395	-0.029890	-65.759404	-82.972199	54.329627	39.979009480	116.339141529	39.043391
25019	5499724	9.517389	-0.594159	0.626112	-0.036642	0.035909	-0.028823	-65.716237	-82.974569	54.280771	39.979009482	116.339141514	39.043321
25020	5499749	9.550427	-0.632653	0.620670	-0.021994	0.052494	-0.034067	-65.650859	-82.976640	54.211650	39.979009484	116.339141499	39.043249
25021	5499774	9.590199	-0.698835	0.655069	-0.004713	0.062694	-0.033626	-65.572376	-82.978039	54.131819	39.979009486	116.339141483	39.043178
25022	5499799	9.634054	-0.759622	0.712039	0.000939	0.074781	-0.039317	-65.477514	-82.979448	54.036301	39.979009488	116.339141468	39.043104
25023	5499824	9.660099	-0.803790	0.741194	0.019932	0.077166	-0.039667	-65.377203	-82.980741	53.938034	39.979009490	116.339141453	39.043030
25024	5499849	9.701224	-0.874126	0.787504	0.025576	0.086798	-0.036231	-65.267539	-82.980989	53.831159	39.979009492	116.339141437	39.042956
25025	5499874	9.710745	-0.901770	0.820641	0.038444	0.088125	-0.035618	-65.154926	-82.981052	53.723167	39.979009494	116.339141422	39.039394
25026	5499899	9.739582	-0.910184	0.855230	0.045112	0.091143	-0.036886	-65.037548	-82.981071	53.611339	39.979009496	116.339141406	39.039316
25027	5499924	9.746301	-0.941973	0.901696	0.053144	0.090019	-0.035249	-64.921011	-82.980917	53.501517	39.979009498	116.339141391	39.039238
25028	5499949	9.762714	-0.920253	0.968255	0.061518	0.100768	-0.036953	-64.791121	-82.980302	53.379450	39.979009500	116.339141376	39.039160
25029	5499974	9.808029	-0.916343	1.030785	0.058541	0.101033	-0.036722	-64.661516	-82.979607	53.257241	39.979009503	116.339141360	39.039083
25030	5499999	9.868354	-0.872902	1.181214	0.067134	0.099277	-0.031237	-64.535292	-82.978276	53.139677	39.979009505	116.339141345	39.039006
25031	5500024	9.887521	-0.805835	1.273195	0.077347	0.091936	-0.025424	-64.418270	-82.976617	53.032859	39.979009507	116.339141329	39.038930
25032	5500049	9.930097	-0.778551	1.342480	0.085431	0.092095	-0.022969	-64.301214	-82.974604	52.927173	39.979009509	116.339141313	39.038856
25033	5500074	10.012534	-0.741854	1.462331	0.112101	0.089985	-0.026278	-64.180937	-82.973123	52.822088	39.979009511	116.339141298	39.036385
25034	5500099	10.046695	-0.698374	1.606092	0.132626	0.076014	-0.029688	-64.070634	-82.972929	52.730017	39.979009514	116.339141282	39.036312
25035	5500124	10.124973	-0.638393	1.747290	0.152560	0.066011	-0.035118	-63.965159	-82.974040	52.645687	39.979009516	116.339141266	39.036240
25036	5500149	10.200453	-0.578484	1.904453	0.164990	0.050114	-0.024621	-63.879836	-82.974784	52.583455	39.979009518	116.339141250	39.036172
25037	5500174	10.302091	-0.535051	2.062891	0.176571	0.031415	-0.014818	-63.817372	-82.975439	52.545929	39.979009521	116.339141234	39.036110
25038	5500199	10.388664	-0.483262	2.188130	0.188454	0.007437	-0.009920	-63.780724	-82.976977	52.536126	39.979009523	116.339141218	39.036049
25039	5500224	10.491735	-0.432887	2.327966	0.187267	-0.013220	-0.005566	-63.768025	-82.979262	52.550284	39.979009526	116.339141202	39.035992
25040	5500249	10.631944	-0.385414	2.499742	0.188421	-0.035037	0.002451	-63.782055	-82.981898	52.591538	39.979009528	116.339141186	39.035941
25041	5500274	10.756845	-0.342256	2.720720	0.190532	-0.060990	0.009669	-63.826617	-82.985245	52.663862	39.979009531	116.339141169	39.039613
25042	5500299	10.888628	-0.263399	2.969696	0.194643	-0.095682	0.018042	-63.911229	-82.989693	52.777129	39.979009534	116.339141153	39.039579
25043	5500324	11.014735	-0.188943	3.282500	0.183339	-0.137775	0.026675	-64.046108	-82.995650	52.939407	39.979009536	116.339141136	39.039553
25044	5500349	11.143686	-0.093738	3.572763	0.164635	-0.196025	0.035955	-64.249848	-83.003989	53.168362	39.979009539	116.339141119	39.039536
25045	5500374	11.235459	0.020740	3.859133	0.148810	-0.255625	0.052559	-64.527598	-83.013757	53.469594	39.979009542	116.339141102	39.039531
25046	5500399	11.338329	0.070758	4.086724	0.118841	-0.322917	0.062954	-64.886935	-83.026093	53.848689	39.979009545	116.339141084	39.039533
25048	5500424	11.434428	0.125112	4.263810	0.077723	-0.388448	0.079736	-65.331532	-83.039875	54.307734	39.979009549	116.339141067	39.039546
25050	5500449	11.573302	0.153421	4.400977	0.022717	-0.470543	0.094856	-65.881129	-83.056059	54.864606	39.979009552	116.339141049	39.039570
25051	5500474	11.710913	0.173762	4.482248	-0.027925	-0.531282	0.112952	-66.463856	-83.069800	55.434040	39.979009655	116.339141344	39.044228
25052	5500499	11.870666	0.122770	4.490172	-0.087242	-0.597182	0.125061	-67.185796	-83.087708	56.148617	39.979009659	116.339141326	39.044291
25053	5500524	12.067889	0.090075	4.397116	-0.148913	-0.642313	0.134121	-67.973770	-83.105745	56.920785	39.979009662	116.339141308	39.044369
25054	5500549	12.280340	0.058892	4.268203	-0.216991	-0.679730	0.137089	-68.818153	-83.124037	57.739919	39.979009666	116.339141289	39.044462
25055	5500574	12.469371	-0.025861	4.116462	-0.277697	-0.690353	0.149773	-69.692608	-83.139693	58.580556	39.979009670	116.339141271	39.044578
25056	5500599	12.666709	-0.099568	3.940819	-0.331320	-0.696026	0.155279	-70.587040	-83.153330	59.433550	39.979009674	116.339141252	39.044705
25057	5500624	12.841954	-0.210431	3.774389	-0.388271	-0.685075	0.160623	-71.482538	-83.164142	60.279381	39.979009678	116.339141233	39.044852
25058	5500649	13.024153	-0.303291	3.581403	-0.445390	-0.658441	0.162418	-72.359063	-83.171967	61.097846	39.979009682	116.339141213	39.045019
25059	5500674	13.188287	-0.407427	3.454802	-0.490442	-0.627345	0.166644	-73.209636	-83.176426	61.883661	39.979009687	116.339141194	39.038509
25060	5500699	13.294497	-0.522596	3.337491	-0.527740	-0.589882	0.177203	-74.026804	-83.176561	62.630451	39.979009691	116.339141174	39.038712
25061	5500724	13.396506	-0.632387	3.253403	-0.562532	-0.552628	0.182757	-74.807563	-83.173259	63.335556	39.979009696	116.339141154	39.038938
25062	5500749	13.426910	-0.721480	3.162675	-0.585155	-0.511472	0.187330	-75.544445	-83.166707	63.993214	39.979009700	116.339141134	39.039187
25063	5500774	13.433810	-0.865597	3.070494	-0.600192	-0.472900	0.198057	-76.240373	-83.156339	64.607467	39.979009705	116.339141113	39.039460
25064	5500799	13.403505	-0.983694	2.996956	-0.604645	-0.424436	0.205216	-76.880585	-83.142509	65.164976	39.979009710	116.339141093	39.039756
25065	5500824	13.344310	-1.071427	2.926130	-0.591006	-0.382908	0.213090	-77.470234	-83.125546	65.673543	39.979009714	116.339141072	39.040074
25066	5500849	13.334631	-1.155146	2.887264	-0.559343	-0.342022	0.205317	-78.003297	-83.107832	66.129700	39.979009719	116.339141051	39.040415
25067	5500874	13.287825	-1.190818	2.855168	-0.528981	-0.308822	0.200935	-78.489962	-83.089278	66.543520	39.979009724	116.339141030	39.044135
25068	5500899	13.242413	-1.230553	2.804469	-0.483920	-0.269924	0.205092	-78.923710	-83.068651	66.910553	39.979009729	116.339141009	39.044524
25069	5500924	13.175005	-1.267453	2.736478	-0.442225	-0.247176	0.207096	-79.323285	-83.046805	67.249192	39.979009734	116.339140987	39.044936
25070	5500949	13.113182	-1.278124	2.659304	-0.396562	-0.218460	0.209570	-79.681451	-83.023592	67.552721	39.979009739	116.339140966	39.045369
25071	5500974	13.080187	-1.332912	2.597953	-0.341406	-0.187966	0.212683	-79.995126	-82.998954	67.819401	39.979009744	116.339140944	39.045821
25072	5500999	13.094168	-1.361441	2.498089	-0.292656	-0.158368	0.214681	-80.266283	-82.973142	68.050292	39.979009749	116.339140922	39.046297
25073	5501024	13.084735	-1.413323	2.383537	-0.231931	-0.135310	0.217655	-80.501158	-82.946233	68.253403	39.979009754	116.339140900	39.046794
25074	5501049	13.079454	-1.443148	2.271741	-0.197263	-0.112851	0.220552	-80.704394	-82.918296	68.429648	39.979009759	116.339140878	39.047312
25075	5501074	13.082576	-1.471415	2.102777	-0.153682	-0.084276	0.217849	-80.867010	-82.890016	68.571263	39.979009764	116.339140856	39.050058
25076	5501099	13.076097	-1.491425	1.928455	-0.123595	-0.054118	0.213909	-80.989351	-82.861568	68.676640	39.979009770	116.339140833	39.050621
25077	5501124	13.102696	-1.446836	1.783696	-0.088508	-0.019141	0.209881	-81.065699	-82.832887	68.740735	39.979009775	116.339140811	39.051205
25078	5501149	13.065911	-1.440743	1.618813	-0.057580	0.019360	0.216445	-81.095066	-82.802414	68.761947	39.979009780	116.339140788	39.051810
25079	5501174	13.027730	-1.419501	1.468550	-0.022899	0.048894	0.213610	-81.085811	-82.771687	68.749237	39.979009786	116.339140765	39.052436
25080	5501199	12.981324	-1.376217	1.311791	0.012463	0.079851	0.212412	-81.036997	-82.740439	68.701755	39.979009791	116.339140742	39.053083
25081	5501224	12.937702	-1.310972	1.163059	0.042354	0.113991	0.207458	-80.945703	-82.709120	68.615762	39.979009796	116.339140719	39.053750
25082	5501249	12.863794	-1.242928	0.998340	0.087649	0.149722	0.204258	-80.808800	-82.677420	68.490322	39.979009802	116.339140696	39.054437
25083	5501274	12.820229	-1.158386	0.840343	0.136031	0.183769	0.194860	-80.627127	-82.646217	68.326721	39.979009807	116.339140673	39.057188
25084	5501299	12.753125	-1.076716	0.719536	0.197198	0.211147	0.190154	-80.407473	-82.614961	68.133645	39.979009812	116.339140650	39.057915
25085	5501324	12.767295	-0.949780	0.634851	0.246358	0.236146	0.186116	-80.154666	-82.583568	67.914224	39.979009818	116.339140627	39.058662
25086	5501349	12.775906	-0.846307	0.557986	0.314799	0.252181	0.170726	-79.873810	-82.553816	67.676388	39.979009823	116.339140604	39.059427
25087	5501374	12.783244	-0.697367	0.465469	0.388534	0.258537	0.161299	-79.575795	-82.525077	67.431883	39.979009829	116.339140581	39.060210
25088	5501399	12.869016	-0.577380	0.400669	0.458935	0.260378	0.146945	-79.264932	-82.498141	67.184574	39.979009835	116.339140558	39.061012
25089	5501424	12.941007	-0.467028	0.329276	0.532635	0.254726	0.132184	-78.948486	-82.473258	66.942268	39.979009840	116.339140535	39.061834
25090	5501449	13.040540	-0.396554	0.237773	0.603825	0.241922	0.114639	-78.633547	-82.451023	66.711754	39.979009846	116.339140512	39.062675
25091	5501474	13.202099	-0.317836	0.146353	0.658408	0.222212	0.099996	-78.330030	-82.431245	66.500637	39.979009852	116.339140489	39.061363
25092	5501499	13.447591	-0.313348	0.052047	0.701353	0.191852	0.084516	-78.050222	-82.414385	66.319635	39.979009858	116.339140466	39.062244
25093	5501524	13.635313	-0.278556	-0.056730	0.729525	0.165662	0.070997	-77.791826	-82.400092	66.164301	39.979009864	116.339140443	39.063148
25094	5501549	13.869785	-0.297522	-0.157751	0.736834	0.131972	0.058886	-77.565638	-82.388437	66.042511	39.979009870	116.339140421	39.064076
25095	5501574	14.067053	-0.297213	-0.250733	0.721355	0.092255	0.049117	-77.381410	-82.379324	65.960816	39.979009876	116.339140398	39.065036
25096	5501599	14.276607	-0.360225	-0.335936	0.683855	0.053664	0.048551	-77.242990	-82.371474	65.919915	39.979009882	116.339140375	39.066016
25097	5501624	14.509590	-0.456210	-0.443832	0.634189	0.011450	0.050344	-77.156267	-82.364703	65.923995	39.979009889	116.339140352	39.067025
25098	5501649	14.673771	-0.538336	-0.574382	0.562690	-0.028507	0.056553	-77.122918	-82.358339	65.971594	39.979009895	116.339140330	39.068062
25099	5501674	14.781376	-0.652119	-0.694362	0.470167	-0.073171	0.072913	-77.153134	-82.351114	66.069957	39.979009901	116.339140307	39.068848
25100	5501699	14.842092	-0.840097	-0.838541	0.364760	-0.109878	0.090237	-77.240538	-82.342622	66.210790	39.979009908	116.339140285	39.069947
25101	5501724	14.867038	-1.044509	-1.016052	0.243680	-0.138071	0.103149	-77.377301	-82.333176	66.383929	39.979009914	116.339140263	39.071077
25102	5501749	14.811989	-1.237930	-1.158988	0.116129	-0.160971	0.125563	-77.560834	-82.321243	66.585831	39.979009921	116.339140241	39.072239
25103	5501774	14.692156	-1.431436	-1.289999	-0.015868	-0.173350	0.131257	-77.776779	-82.308797	66.801364	39.979009928	116.339140219	39.073431
25104	5501799	14.496665	-1.540983	-1.424745	-0.146417	-0.169820	0.143994	-78.009849	-82.294349	67.015316	39.979009934	116.339140197	39.074653
25105	5501824	14.230815	-1.657517	-1.523679	-0.267212	-0.158848	0.154972	-78.250383	-82.277921	67.219348	39.979009941	116.339140175	39.075905
25106	5501849	13.949909	-1.750536	-1.657134	-0.363804	-0.145426	0.166646	-78.492391	-82.259352	67.410912	39.979009947	116.339140154	39.077183
25107	5501874	13.598683	-1.816150	-1.746609	-0.449188	-0.121109	0.174174	-78.722064	-82.238931	67.577695	39.979009954	116.339140132	39.080004
25108	5501899	13.248653	-1.884793	-1.769624	-0.500025	-0.092560	0.171024	-78.927965	-82.218076	67.713143	39.979009960	116.339140111	39.081333
25109	5501924	12.774849	-1.958563	-1.888478	-0.523125	-0.053860	0.167385	-79.095819	-82.196617	67.806856	39.979009967	116.339140090	39.082682
25110	5501949	12.353317	-2.006375	-1.957977	-0.530657	-0.005744	0.161603	-79.213642	-82.174642	67.848986	39.979009973	116.339140069	39.084049
25111	5501974	11.996471	-2.004874	-1.967504	-0.508353	0.047801	0.144981	-79.269931	-82.153566	67.832228	39.979009979	116.339140048	39.085419
25112	5501999	11.639619	-1.966335	-1.956950	-0.463428	0.096801	0.123066	-79.265544	-82.134269	67.760714	39.979009986	116.339140028	39.086814
25113	5502024	11.315770	-1.901813	-1.901041	-0.405961	0.148797	0.110877	-79.197932	-82.115288	67.633681	39.979009992	116.339140007	39.088221
25114	5502049	10.962984	-1.857923	-1.859877	-0.312477	0.201435	0.090349	-79.060064	-82.097743	67.449232	39.979009998	116.339139987	39.089637
25115	5502074	10.662524	-1.807175	-1.794718	-0.205867	0.252773	0.080624	-78.853855	-82.080080	67.211194	39.979010004	116.339139967	39.090238
25116	5502099	10.407295	-1.802105	-1.664544	-0.081752	0.297225	0.070354	-78.584029	-82.062478	66.926866	39.979010011	116.339139947	39.091665
25117	5502124	10.130027	-1.831346	-1.557101	0.050905	0.332910	0.055689	-78.257582	-82.045704	66.604542	39.979010017	116.339139927	39.093096
25118	5502149	9.830738	-1.857793	-1.456349	0.182956	0.361362	0.037313	-77.881212	-82.030390	66.250896	39.979010023	116.339139907	39.094529
25119	5502174	9.619698	-1.893794	-1.392746	0.307457	0.381696	0.018263	-77.463945	-82.016782	65.873948	39.979010029	116.339139887	39.095953
25120	5502199	9.349348	-1.943592	-1.309294	0.417388	0.403342	-0.003229	-77.005897	-82.005091	65.471709	39.979010035	116.339139868	39.097385
25121	5502224	9.106717	-1.960200	-1.269589	0.534204	0.421904	-0.026561	-76.508494	-81.995579	65.046615	39.979010041	116.339139848	39.098814
25122	5502249	8.899942	-1.975381	-1.239200	0.619128	0.437871	-0.044216	-75.979955	-81.987450	64.602353	39.979010046	116.339139829	39.100238
25123	5502274	8.716411	-2.012834	-1.153024	0.695738	0.449683	-0.056593	-75.426704	-81.980038	64.144195	39.979010052	116.339139809	39.093401
25124	5502299	8.512353	-2.022572	-1.109277	0.756085	0.459141	-0.074695	-74.851705	-81.974155	63.672810	39.979010058	116.339139790	39.094806
25125	5502324	8.313895	-2.010266	-1.084103	0.795619	0.467034	-0.088930	-74.260233	-81.969267	63.190501	39.979010064	116.339139771	39.096202
25126	5502349	8.174667	-2.029539	-1.072303	0.827571	0.469168	-0.095487	-73.660941	-81.964498	62.704911	39.979010069	116.339139752	39.097590
25127	5502374	8.036770	-2.079129	-1.059240	0.851222	0.478222	-0.102042	-73.048234	-81.959539	62.209189	39.979010075	116.339139733	39.098964
25128	5502399	7.958011	-2.109665	-0.986271	0.866460	0.481694	-0.109671	-72.428399	-81.954731	61.708466	39.979010080	116.339139714	39.100331
25129	5502424	7.850342	-2.144222	-0.929282	0.881312	0.476827	-0.118932	-71.808922	-81.950642	61.210248	39.979010086	116.339139696	39.101689
25130	5502449	7.746921	-2.156686	-0.904131	0.888293	0.457455	-0.127104	-71.204977	-81.947799	60.728721	39.979010091	116.339139677	39.103034
25131	5502474	7.710971	-2.181564	-0.872328	0.888591	0.433584	-0.132184	-70.622525	-81.946064	60.268938	39.979010096	116.339139658	39.101155
25132	5502499	7.629570	-2.270944	-0.887335	0.884158	0.405508	-0.142016	-70.064303	-81.946366	59.832989	39.979010101	116.339139640	39.102473
25133	5502524	7.632182	-2.343936	-0.868969	0.864168	0.373891	-0.144975	-69.537897	-81.948052	59.426281	39.979010106	116.339139621	39.103779
25134	5502549	7.597726	-2.383739	-0.889058	0.848252	0.336205	-0.158034	-69.044542	-81.952890	59.050655	39.979010111	116.339139603	39.105072
25135	5502574	7.637592	-2.447073	-0.889271	0.816678	0.299609	-0.160010	-68.589036	-81.959450	58.708691	39.979010116	116.339139585	39.106353
25136	5502599	7.669134	-2.524177	-0.873558	0.793764	0.249347	-0.170597	-68.179566	-81.969710	58.409912	39.979010121	116.339139567	39.107622
25137	5502624	7.755979	-2.554315	-0.910822	0.778830	0.196798	-0.172929	-67.819938	-81.982820	58.159316	39.979010126	116.339139548	39.108879
25138	5502649	7.808467	-2.622796	-1.002774	0.770351	0.146386	-0.171755	-67.508456	-81.998313	57.956123	39.979010130	116.339139530	39.110125
25139	5502674	7.942149	-2.716145	-1.069514	0.756265	0.094555	-0.169051	-67.247894	-82.016163	57.802316	39.979010135	116.339139512	39.108992
25140	5502699	8.117237	-2.819005	-1.170800	0.742495	0.053035	-0.168109	-67.027896	-82.036109	57.687488	39.979010139	116.339139494	39.110215
25141	5502724	8.266227	-2.912116	-1.294682	0.730157	0.014679	-0.171626	-66.843626	-82.058614	57.606958	39.979010144	116.339139477	39.111429
25142	5502749	8.413778	-3.038296	-1.413369	0.708820	-0.016268	-0.173333	-66.690250	-82.083061	57.554538	39.979010148	116.339139459	39.112635
25143	5502774	8.609704	-3.136801	-1.582476	0.670749	-0.033644	-0.168322	-66.560237	-82.107817	57.520202	39.979010152	116.339139441	39.113840
25144	5502799	8.824796	-3.219000	-1.684991	0.624932	-0.053193	-0.161298	-66.457766	-82.132758	57.507049	39.979010156	116.339139424	39.115035
25145	5502824	9.068817	-3.271016	-1.775486	0.578393	-0.064661	-0.148873	-66.377706	-82.156721	57.509789	39.979010159	116.339139407	39.116225
25146	5502849	9.296187	-3.379512	-1.840812	0.529380	-0.073969	-0.132564	-66.320157	-82.179080	57.528166	39.979010163	116.339139390	39.117413
25147	5502874	9.505772	-3.456208	-1.950027	0.489040	-0.076099	-0.118716	-66.276134	-82.199747	57.554369	39.979010166	116.339139373	39.122271
25148	5502899	9.726432	-3.473831	-2.036344	0.443295	-0.083247	-0.101566	-66.252727	-82.218581	57.594757	39.979010170	116.339139356	39.123462
25150	5502924	9.908390	-3.513558	-2.092201	0.405523	-0.079308	-0.073044	-66.243049	-82.233449	57.643541	39.979010173	116.339139339	39.124655
25152	5502949	10.106781	-3.569956	-2.108227	0.391459	-0.081559	-0.052822	-66.246193	-82.245796	57.703230	39.979010176	116.339139323	39.125850
25153	5502974	10.357225	-3.713254	-2.064722	0.378166	-0.088970	-0.034161	-66.263264	-82.254847	57.735203	39.979010393	116.339139152	39.106137
25154	5502999	10.540612	-3.733724	-2.124455	0.381255	-0.103988	-0.021215	-66.303122	-82.264336	57.830466	39.979010396	116.339139136	39.107281
25155	5503024	10.612421	-3.780195	-2.216323	0.375110	-0.098644	-0.000884	-66.347459	-82.270840	57.929359	39.979010399	116.339139120	39.108432
25156	5503049	10.629102	-3.775836	-2.273453	0.390388	-0.088017	0.018410	-66.387594	-82.274193	58.026218	39.979010401	116.339139104	39.109590
25157	5503074	10.677432	-3.723525	-2.281228	0.407627	-0.073993	0.035654	-66.419026	-82.274471	58.116781	39.979010403	116.339139088	39.107149
25158	5503099	10.779334	-3.682471	-2.230468	0.445803	-0.055142	0.046702	-66.431393	-82.272213	58.193629	39.979010406	116.339139073	39.108317
25159	5503124	10.747670	-3.626134	-2.210365	0.497589	-0.040834	0.053008	-66.425133	-82.268307	58.259165	39.979010408	116.339139058	39.109493
25160	5503149	10.716006	-3.550567	-2.170198	0.550458	-0.021134	0.054984	-66.393065	-82.263016	58.306299	39.979010409	116.339139043	39.110675
25161	5503174	10.678781	-3.389951	-2.073981	0.594996	-0.004508	0.063117	-66.341988	-82.255707	58.340688	39.979010411	116.339139028	39.111863
25162	5503199	10.644445	-3.178350	-1.992153	0.654146	0.005066	0.051999	-66.268535	-82.249311	58.361046	39.979010413	116.339139013	39.113059
25163	5503224	10.570237	-2.915797	-1.916857	0.730670	0.017716	0.059825	-66.175313	-82.241162	58.372515	39.979010414	116.339138999	39.114261
25164	5503249	10.523464	-2.645184	-1.781680	0.811744	0.022070	0.048757	-66.061682	-82.234213	58.375108	39.979010416	116.339138984	39.115469
25165	5503274	10.480888	-2.375876	-1.685069	0.898199	0.029604	0.042823	-65.926007	-82.227602	58.367953	39.979010417	116.339138970	39.118025
25166	5503299	10.442395	-2.182137	-1.604677	0.982377	0.034535	0.040527	-65.772706	-82.221000	58.355176	39.979010418	116.339138956	39.119244
25167	5503324	10.458921	-1.965227	-1.469662	1.061476	0.039464	0.037248	-65.602100	-82.214530	58.336368	39.979010419	116.339138942	39.120468
25168	5503349	10.445018	-1.833601	-1.344229	1.124029	0.041038	0.029624	-65.417884	-82.208953	58.312867	39.979010420	116.339138928	39.121696
25169	5503374	10.398137	-1.711470	-1.257419	1.186210	0.037506	0.027849	-65.227491	-82.203808	58.292120	39.979010422	116.339138915	39.122927
25170	5503399	10.393855	-1.630670	-1.148110	1.230719	0.039718	0.026691	-65.028260	-82.198670	58.268888	39.979010423	116.339138901	39.124163
25171	5503424	10.360675	-1.530614	-1.044088	1.259329	0.044242	0.018479	-64.817159	-82.194312	58.237811	39.979010424	116.339138888	39.125403
25172	5503449	10.324600	-1.491153	-0.922938	1.280963	0.047269	0.015001	-64.598684	-82.190203	58.202418	39.979010425	116.339138874	39.126647
25173	5503474	10.263667	-1.444922	-0.776581	1.286907	0.051855	0.012773	-64.374177	-82.186081	58.161791	39.979010426	116.339138861	39.124863
25174	5503499	10.213723	-1.444085	-0.635677	1.282813	0.054978	0.013429	-64.147751	-82.181659	58.118640	39.979010427	116.339138848	39.126109
25175	5503524	10.130623	-1.477655	-0.481593	1.274852	0.051425	0.008957	-63.923904	-82.178011	58.076940	39.979010428	116.339138835	39.127358
25176	5503549	10.066932	-1.464394	-0.349925	1.258040	0.047883	0.008382	-63.705636	-82.174640	58.038440	39.979010428	116.339138822	39.128610
25177	5503574	9.990736	-1.519912	-0.214529	1.229434	0.042087	0.004825	-63.495335	-82.172075	58.003847	39.979010429	116.339138809	39.129861
25178	5503599	9.922892	-1.558804	-0.108293	1.189551	0.043573	0.003061	-63.288618	-82.169623	57.967104	39.979010430	116.339138796	39.131116
25179	5503624	9.810946	-1.590940	0.011209	1.144615	0.036287	0.000821	-63.094130	-82.167911	57.936208	39.979010431	116.339138784	39.132372
25180	5503649	9.734768	-1.586005	0.172105	1.106190	0.034529	-0.000989	-62.905969	-82.166530	57.906143	39.979010432	116.339138771	39.133629
25181	5503674	9.626890	-1.603098	0.327561	1.069151	0.033206	0.004619	-62.727055	-82.164508	57.880052	39.979010433	116.339138758	39.132697
25182	5503699	9.561802	-1.618654	0.447179	1.027468	0.029634	0.012036	-62.561002	-82.161766	57.860920	39.979010433	116.339138745	39.133951
25183	5503724	9.517347	-1.638464	0.584019	0.996052	0.025943	0.017193	-62.405397	-82.158607	57.847792	39.979010434	116.339138733	39.135204
25184	5503749	9.486025	-1.755331	0.929321	0.972785	0.017035	0.021100	-62.263280	-82.155540	57.844915	39.979010435	116.339138720	39.136456
25185	5503774	9.427366	-1.875918	1.174909	0.950814	-0.006188	0.022642	-62.146467	-82.153827	57.864405	39.979010436	116.339138707	39.137706
25186	5503799	9.339907	-1.963405	1.387339	0.929493	-0.031184	0.009088	-62.049099	-82.155511	57.900441	39.979010436	116.339138694	39.138956
25187	5503824	9.221909	-2.001838	1.715597	0.899233	-0.064284	0.008307	-61.986078	-82.159525	57.966772	39.979010437	116.339138682	39.140204
25188	5503849	9.137003	-1.955094	2.090692	0.846005	-0.107621	0.015715	-61.974137	-82.165524	58.076968	39.979010437	116.339138669	39.141450
25189	5503874	9.211591	-2.032505	2.535862	0.783041	-0.169785	0.034770	-62.037844	-82.173287	58.254405	39.979010438	116.339138655	39.135129
25190	5503899	8.867360	-1.909226	3.068033	0.686209	-0.247660	0.037958	-62.189072	-82.185818	58.506193	39.979010438	116.339138642	39.136363
25191	5503924	8.680206	-1.617158	3.708511	0.596772	-0.356966	0.055768	-62.463729	-82.203233	58.869625	39.979010439	116.339138629	39.137592
25192	5503949	8.491982	-1.375404	4.195860	0.518708	-0.489307	0.082175	-62.887147	-82.225689	59.371898	39.979010439	116.339138615	39.138815
25193	5503974	8.350788	-1.274812	4.535164	0.434122	-0.633902	0.103517	-63.471527	-82.254162	60.024364	39.979010440	116.339138601	39.140027
25194	5503999	8.258087	-1.239667	4.716120	0.343415	-0.782535	0.129783	-64.226955	-82.287610	60.836284	39.979010440	116.339138586	39.141237
25195	5504024	8.248358	-1.305746	4.726514	0.238127	-0.916474	0.145297	-65.140189	-82.325660	61.792157	39.979010441	116.339138572	39.142440
25196	5504049	8.215580	-1.449395	4.525326	0.147942	-1.038351	0.142741	-66.193428	-82.369037	62.876167	39.979010441	116.339138557	39.143635
25197	5504074	8.213760	-1.445212	4.142419	0.078928	-1.122842	0.138809	-67.350583	-82.414911	64.054941	39.979010441	116.339138542	39.150680
25198	5504099	8.216213	-1.438016	3.703674	0.035639	-1.168949	0.132793	-68.571724	-82.460815	65.291870	39.979010442	116.339138526	39.151865
25199	5504124	8.305283	-1.480598	3.313994	0.019258	-1.181996	0.132991	-69.823082	-82.503833	66.556784	39.979010442	116.339138511	39.153043
25200	5504149	8.394272	-1.564440	2.924200	0.017148	-1.169616	0.137571	-71.077435	-82.542011	67.824296	39.979010442	116.339138495	39.154213
25201	5504174	8.436264	-1.707558	2.567372	0.024207	-1.130852	0.138344	-72.302769	-82.574761	69.063459	39.979010443	116.339138479	39.155377
25202	5504199	8.410675	-1.826076	2.249163	0.048660	-1.067061	0.130314	-73.464913	-82.602570	70.242348	39.979010443	116.339138462	39.156533
25203	5504224	8.375352	-1.952933	1.966841	0.094140	-0.994471	0.118908	-74.548043	-82.626099	71.348061	39.979010443	116.339138446	39.157681
25204	5504249	8.317766	-2.093868	1.760205	0.153966	-0.905988	0.102505	-75.529536	-82.646062	72.359879	39.979010444	116.339138430	39.158822
25205	5504274	8.260105	-2.199265	1.609570	0.205822	-0.814560	0.087295	-76.405848	-82.662858	73.273097	39.979010444	116.339138413	39.162322
25206	5504299	8.191311	-2.304801	1.508120	0.267793	-0.721869	0.068325	-77.171723	-82.677589	74.083883	39.979010444	116.339138396	39.163450
25207	5504324	8.107411	-2.358104	1.412130	0.332832	-0.628473	0.054097	-77.825992	-82.690131	74.791513	39.979010444	116.339138380	39.164568
25208	5504349	8.012457	-2.389462	1.337500	0.390297	-0.541823	0.038055	-78.375726	-82.701416	75.402033	39.979010444	116.339138363	39.165678
25209	5504374	7.925700	-2.412717	1.312102	0.459331	-0.453785	0.026062	-78.817958	-82.711218	75.914129	39.979010444	116.339138346	39.166774
25210	5504399	7.810038	-2.444157	1.256084	0.518322	-0.378388	0.025198	-79.169757	-82.718630	76.343565	39.979010443	116.339138329	39.167864
25211	5504424	7.726179	-2.395803	1.204325	0.580956	-0.305355	0.014743	-79.430639	-82.725279	76.690383	39.979010443	116.339138312	39.168942
25212	5504449	7.640845	-2.369545	1.183070	0.655626	-0.238182	0.012062	-79.606612	-82.730388	76.962382	39.979010443	116.339138294	39.170008
25213	5504474	7.590014	-2.384410	1.113840	0.726292	-0.180915	0.004517	-79.707927	-82.735004	77.169324	39.979010442	116.339138277	39.174203
25214	5504499	7.533702	-2.352542	1.060692	0.786333	-0.125663	-0.003234	-79.738166	-82.739271	77.313278	39.979010442	116.339138260	39.175249
25215	5504524	7.432057	-2.294382	0.966421	0.834949	-0.072695	-0.007363	-79.702080	-82.742766	77.397390	39.979010441	116.339138242	39.176281
25216	5504549	7.393632	-2.251581	0.925309	0.878196	-0.021078	-0.005370	-79.603077	-82.744665	77.424320	39.979010441	116.339138225	39.177300
25217	5504574	7.373146	-2.166177	0.908285	0.912893	0.021997	-0.010544	-79.450355	-82.746179	77.402109	39.979010440	116.339138207	39.178304
25218	5504599	7.318378	-2.017356	0.854235	0.952626	0.059015	-0.025176	-79.247910	-82.748764	77.335510	39.979010439	116.339138190	39.179296
25219	5504624	7.183835	-1.838093	0.761640	0.999429	0.091274	-0.031133	-79.001722	-82.751282	77.231575	39.979010438	116.339138172	39.180273
25220	5504649	7.113994	-1.691880	0.671681	1.033731	0.124948	-0.041209	-78.711082	-82.754222	77.087783	39.979010437	116.339138154	39.181234
25221	5504674	7.086789	-1.578780	0.597523	1.069475	0.155091	-0.045867	-78.380795	-82.756861	76.909195	39.979010437	116.339138137	39.186099
25222	5504699	7.045774	-1.498630	0.512653	1.089111	0.187768	-0.044040	-78.011908	-82.758149	76.694525	39.979010436	116.339138119	39.187032
25223	5504724	7.018472	-1.441981	0.443666	1.097382	0.215206	-0.053182	-77.609320	-82.759704	76.447078	39.979010435	116.339138101	39.187949
25224	5504749	6.977315	-1.362036	0.417319	1.089235	0.241372	-0.056410	-77.178186	-82.760666	76.169680	39.979010434	116.339138084	39.188850
25225	5504774	6.916948	-1.282001	0.360355	1.071540	0.260142	-0.062361	-76.727365	-82.761582	75.869883	39.979010433	116.339138066	39.189732
25226	5504799	6.868890	-1.224043	0.323262	1.039571	0.277929	-0.055397	-76.263406	-82.760631	75.552225	39.979010431	116.339138048	39.190597
25227	5504824	6.842987	-1.142661	0.262331	1.003501	0.294872	-0.061731	-75.784465	-82.759646	75.214257	39.979010430	116.339138030	39.191445
25228	5504849	6.807293	-1.098518	0.234536	0.950814	0.307824	-0.053228	-75.301496	-82.756660	74.864618	39.979010429	116.339138012	39.192275
25229	5504874	6.807474	-1.011780	0.217523	0.901565	0.316608	-0.051674	-74.816860	-82.752763	74.506181	39.979010428	116.339137994	39.190393
25230	5504899	6.828317	-0.923616	0.195213	0.857064	0.322798	-0.049134	-74.333116	-82.747897	74.142219	39.979010427	116.339137977	39.191183
25231	5504924	6.810535	-0.880843	0.164744	0.803544	0.319915	-0.043261	-73.862572	-82.741954	73.783830	39.979010426	116.339137959	39.191956
25232	5504949	6.798156	-0.861602	0.167470	0.753726	0.320286	-0.035793	-73.401849	-82.734601	73.428144	39.979010425	116.339137941	39.192710
25233	5504974	6.801023	-0.821621	0.149005	0.707112	0.310598	-0.022498	-72.963404	-82.725474	73.088179	39.979010424	116.339137923	39.193445
25234	5504999	6.800988	-0.803832	0.170271	0.662860	0.299300	-0.018188	-72.545808	-82.715916	72.762834	39.979010422	116.339137905	39.194162
25235	5505024	6.794075	-0.791487	0.190304	0.626983	0.282599	-0.010340	-72.154815	-82.705722	72.459122	39.979010421	116.339137888	39.194861
25236	5505049	6.747308	-0.763900	0.170381	0.591944	0.253193	-0.002792	-71.803670	-82.695553	72.190515	39.979010420	116.339137870	39.195541
25237	5505074	6.699222	-0.754062	0.117208	0.552313	0.231288	0.009236	-71.486534	-82.684539	71.950452	39.979010419	116.339137852	39.188093
25238	5505099	6.704765	-0.756768	0.103904	0.516285	0.218490	0.015441	-71.191090	-82.673105	71.727065	39.979010418	116.339137834	39.188726
25239	5505124	6.692458	-0.700323	0.104091	0.480478	0.198071	0.017188	-70.923685	-82.662245	71.526772	39.979010417	116.339137817	39.189340
25240	5505149	6.724179	-0.690692	0.097486	0.441840	0.178309	0.016147	-70.682840	-82.652343	71.347673	39.979010416	116.339137799	39.189935
25241	5505174	6.720061	-0.641250	0.120266	0.405571	0.157383	0.021982	-70.471798	-82.642560	71.193382	39.979010415	116.339137781	39.190511
25242	5505199	6.726971	-0.609617	0.128330	0.375375	0.138386	0.029624	-70.288229	-82.632591	71.062429	39.979010413	116.339137763	39.191068
25243	5505224	6.787539	-0.635831	0.138913	0.344910	0.118579	0.034185	-70.131771	-82.622918	70.954409	39.979010412	116.339137746	39.191605
25244	5505249	6.795689	-0.685424	0.156059	0.316139	0.092611	0.038822	-70.008495	-82.613855	70.875689	39.979010411	116.339137728	39.192125
25245	5505274	6.823271	-0.692288	0.146737	0.277323	0.072786	0.053886	-69.917276	-82.603719	70.823689	39.979010410	116.339137710	39.193107
25246	5505299	6.858975	-0.736380	0.166567	0.246684	0.045380	0.067198	-69.864041	-82.593133	70.805564	39.979010409	116.339137693	39.193590
25247	5505324	6.856097	-0.788759	0.186324	0.212833	0.020006	0.073053	-69.844182	-82.583011	70.816206	39.979010408	116.339137675	39.194055
25248	5505349	6.807642	-0.903067	0.208524	0.182426	-0.012569	0.088567	-69.868162	-82.572409	70.866666	39.979010407	116.339137657	39.194501
25249	5505374	6.790855	-1.043471	0.230637	0.154336	-0.042380	0.098874	-69.930661	-82.561883	70.951914	39.979010406	116.339137640	39.194929
25250	5505399	6.816886	-1.170015	0.216941	0.124301	-0.073969	0.108856	-70.033512	-82.551546	71.073521	39.979010405	116.339137622	39.195339
25253	5505424	6.801607	-1.248440	0.218021	0.099479	-0.103197	0.116360	-70.172473	-82.541591	71.227962	39.979010404	116.339137604	39.195731
25254	5505449	6.812523	-1.340619	0.212414	0.078790	-0.128721	0.117598	-70.340723	-82.532650	71.408957	39.979010403	116.339137587	39.196105
25255	5505474	6.828961	-1.417627	0.197528	0.063773	-0.151694	0.120144	-70.528315	-82.523805	71.619832	39.979010580	116.339137406	39.194123
25256	5505499	6.855143	-1.432715	0.185545	0.043251	-0.159797	0.123326	-70.734836	-82.515413	71.834299	39.979010579	116.339137388	39.194455
25257	5505524	6.870201	-1.531764	0.174564	0.023113	-0.171703	0.127204	-70.957400	-82.506951	72.062043	39.979010577	116.339137371	39.194770
25258	5505549	6.839892	-1.572926	0.141182	-0.013022	-0.177327	0.142018	-71.195612	-82.496623	72.300353	39.979010576	116.339137353	39.195067
25259	5505574	6.811018	-1.541240	0.137326	-0.044003	-0.178716	0.151844	-71.442429	-82.484894	72.542873	39.979010575	116.339137336	39.195346
25260	5505599	6.827396	-1.592283	0.171705	-0.048262	-0.179198	0.157158	-71.691393	-82.472328	72.786951	39.979010574	116.339137318	39.195607
25261	5505624	6.847987	-1.589664	0.206290	-0.055374	-0.189260	0.157993	-71.951183	-82.459957	73.040927	39.979010572	116.339137301	39.195852
25262	5505649	6.849388	-1.541577	0.226418	-0.051501	-0.200944	0.157532	-72.221441	-82.448009	73.306030	39.979010571	116.339137283	39.196078
25263	5505674	6.838505	-1.474063	0.206680	-0.032930	-0.212489	0.147307	-72.496781	-82.437793	73.578933	39.979010569	116.339137266	39.187136
25264	5505699	6.873179	-1.407803	0.156395	-0.015576	-0.223868	0.143301	-72.779295	-82.428436	73.861604	39.979010568	116.339137248	39.187317
25265	5505724	6.921470	-1.422853	0.121809	-0.013366	-0.229967	0.130743	-73.063132	-82.420871	74.145933	39.979010566	116.339137231	39.187481
25266	5505749	6.994573	-1.452934	0.076514	-0.017478	-0.237061	0.119020	-73.350682	-82.415020	74.433419	39.979010565	116.339137213	39.187628
25267	5505774	7.063409	-1.461296	0.088510	-0.043060	-0.242545	0.114797	-73.645823	-82.409780	74.724870	39.979010563	116.339137196	39.187761
25268	5505799	7.159905	-1.455737	0.079266	-0.061862	-0.249372	0.106607	-73.947860	-82.405738	75.020564	39.979010562	116.339137178	39.187875
25269	5505824	7.183360	-1.413152	0.088744	-0.087151	-0.253794	0.101505	-74.256274	-82.402365	75.319041	39.979010560	116.339137161	39.187974
25270	5505849	7.184920	-1.287939	0.087828	-0.097416	-0.256576	0.097214	-74.567534	-82.399478	75.618906	39.979010559	116.339137144	39.188057
25271	5505874	7.160295	-1.208039	0.066792	-0.106946	-0.265135	0.101045	-74.889851	-82.396165	75.928555	39.979010557	116.339137126	39.189829
25272	5505899	7.160419	-1.136428	0.055078	-0.110982	-0.268354	0.097677	-75.214883	-82.393206	76.240359	39.979010555	116.339137109	39.189882
25273	5505924	7.182484	-1.115824	0.064470	-0.106928	-0.273298	0.094137	-75.543262	-82.390681	76.556127	39.979010554	116.339137091	39.189919
25274	5505949	7.233364	-1.125610	0.096362	-0.105643	-0.269720	0.095463	-75.867862	-82.387607	76.868271	39.979010552	116.339137074	39.189941
25275	5505974	7.326887	-1.167061	0.142838	-0.109448	-0.280535	0.089219	-76.202396	-82.385537	77.189889	39.979010550	116.339137057	39.189949
25276	5505999	7.460388	-1.214022	0.179971	-0.113516	-0.293325	0.077815	-76.547805	-82.385234	77.521892	39.979010548	116.339137039	39.189941
25277	5506024	7.564963	-1.280166	0.199767	-0.128011	-0.303325	0.069787	-76.903736	-82.386109	77.862415	39.979010547	116.339137022	39.189919
25278	5506049	7.673806	-1.303531	0.187779	-0.150128	-0.317451	0.061011	-77.275596	-82.388375	78.215812	39.979010545	116.339137005	39.189884
25279	5506074	7.737055	-1.335330	0.218321	-0.174083	-0.327270	0.059827	-77.661088	-82.390803	78.579505	39.979010543	116.339136987	39.193649
25280	5506099	7.805717	-1.412567	0.272588	-0.195092	-0.340004	0.063013	-78.063894	-82.392836	78.957621	39.979010541	116.339136970	39.193594
25281	5506124	7.875762	-1.481608	0.322951	-0.214243	-0.350721	0.065386	-78.481408	-82.394490	79.347806	39.979010540	116.339136953	39.193527
25282	5506149	7.938882	-1.613828	0.353147	-0.229993	-0.367534	0.067988	-78.919572	-82.395865	79.756548	39.979010538	116.339136935	39.193450
25283	5506174	8.050065	-1.779232	0.425791	-0.244899	-0.382538	0.068451	-79.375918	-82.397157	80.181477	39.979010536	116.339136918	39.193365
25284	5506199	8.129672	-1.893711	0.486619	-0.263669	-0.402512	0.067443	-79.855985	-82.398648	80.627623	39.979010534	116.339136901	39.193268
25285	5506224	8.231334	-2.020496	0.535474	-0.287612	-0.424326	0.073881	-80.363877	-82.399257	81.098380	39.979010532	116.339136883	39.193162
25286	5506249	8.361914	-2.144548	0.586992	-0.303669	-0.444527	0.070572	-80.894959	-82.400241	81.590211	39.979010530	116.339136866	39.193047
25287	5506274	8.511753	-2.276940	0.653148	-0.328448	-0.461111	0.078385	-81.448556	-82.399867	82.101167	39.979010528	116.339136848	39.188044
25288	5506299	8.642304	-2.460103	0.689846	-0.349405	-0.480472	0.075601	-82.025202	-82.399621	82.632357	39.979010526	116.339136831	39.187912
25289	5506324	8.819864	-2.520843	0.725652	-0.378165	-0.504355	0.078611	-82.631718	-82.398678	83.189527	39.979010523	116.339136813	39.187774
25290	5506349	8.936720	-2.624235	0.777235	-0.398699	-0.518796	0.082304	-83.256827	-82.396673	83.762488	39.979010521	116.339136796	39.187632
25291	5506374	9.055075	-2.699999	0.788997	-0.420569	-0.540961	0.078765	-83.907924	-82.394682	84.358511	39.979010519	116.339136778	39.187491
25292	5506399	9.235474	-2.749594	0.806274	-0.428681	-0.554839	0.074503	-84.574163	-82.392591	84.968640	39.979010516	116.339136760	39.187344
25293	5506424	9.362020	-2.791151	0.864720	-0.428616	-0.571580	0.078547	-85.258210	-82.389185	85.596749	39.979010514	116.339136743	39.187195
25294	5506449	9.520307	-2.827145	0.915228	-0.425629	-0.595014	0.076650	-85.966057	-82.385296	86.249307	39.979010511	116.339136725	39.187046
25295	5506474	9.648363	-2.839652	0.941854	-0.417398	-0.614680	0.072967	-86.692716	-82.381032	86.922047	39.979010508	116.339136707	39.190813
25296	5506499	9.783342	-2.898810	0.935065	-0.397387	-0.634419	0.073707	-87.436774	-82.375663	87.615234	39.979010505	116.339136689	39.190670
25297	5506524	9.900358	-2.955292	0.944293	-0.374050	-0.654625	0.069450	-88.197816	-82.369807	88.328938	39.979010503	116.339136671	39.190529
25298	5506549	10.046389	-2.995150	0.926969	-0.344357	-0.672630	0.056182	-88.972329	-82.364645	89.060533	39.979010500	116.339136653	39.190391
25299	5506574	10.191205	-2.960658	0.893923	-0.311494	-0.674363	0.045000	-89.742784	-82.359778	89.792792	39.979010496	116.339136635	39.190261
25300	5506599	10.356682	-2.957751	0.844848	-0.277314	-0.676850	0.038549	-90.509976	-82.354529	90.526708	39.979010493	116.339136617	39.190132
25301	5506624	10.508326	-2.934292	0.821130	-0.237408	-0.671695	0.025970	-91.265099	-82.349797	91.254221	39.979010490	116.339136599	39.190009
25302	5506649	10.732924	-2.971422	0.806492	-0.201999	-0.650099	0.017494	-91.991427	-82.345115	91.957808	39.979010487	116.339136580	39.189893
25303	5506674	10.924345	-2.978472	0.838493	-0.172864	-0.643928	0.008292	-92.706499	-82.340608	92.654253	39.979010483	116.339136562	39.189294
25304	5506699	11.121332	-3.015657	0.839802	-0.153182	-0.625050	-0.004703	-93.398579	-82.336964	93.330353	39.979010480	116.339136544	39.189195
25305	5506724	11.253386	-3.064119	0.899544	-0.129914	-0.612365	-0.011756	-94.073651	-82.333372	93.992659	39.979010476	116.339136525	39.189106
25306	5506749	11.476457	-3.108282	0.936761	-0.119106	-0.602466	-0.019661	-94.736663	-82.329987	94.644364	39.979010472	116.339136507	39.189029
25307	5506774	11.644323	-3.148505	1.007193	-0.112042	-0.590539	-0.023884	-95.385796	-82.326360	95.283092	39.979010469	116.339136488	39.188971
25308	5506799	11.824544	-3.212107	1.086881	-0.106749	-0.591467	-0.030814	-96.035238	-82.322741	95.922902	39.979010465	116.339136469	39.188921
25309	5506824	12.026889	-3.264677	1.141349	-0.106351	-0.594568	-0.035141	-96.687742	-82.318718	96.565864	39.979010461	116.339136450	39.188886
25310	5506849	12.188003	-3.297795	1.155980	-0.109687	-0.583698	-0.046745	-97.330092	-82.315564	97.198104	39.979010457	116.339136432	39.188867
25311	5506874	12.322858	-3.342021	1.191844	-0.121601	-0.570585	-0.041558	-97.959019	-82.310985	97.815076	39.979010453	116.339136412	39.185125
25312	5506899	12.441190	-3.378008	1.243627	-0.134528	-0.556411	-0.041606	-98.574119	-82.305811	98.416240	39.979010448	116.339136393	39.185137
25313	5506924	12.536172	-3.420743	1.252897	-0.147338	-0.533715	-0.040144	-99.166185	-82.300083	98.992318	39.979010444	116.339136374	39.185169
25314	5506949	12.658746	-3.444187	1.270154	-0.148766	-0.505930	-0.041120	-99.728714	-82.294369	99.538391	39.979010440	116.339136355	39.185219
25315	5506974	12.825267	-3.477451	1.336651	-0.148000	-0.476767	-0.043200	-100.260299	-82.288976	100.053356	39.979010435	116.339136335	39.185295
25316	5506999	12.983519	-3.483305	1.409882	-0.146422	-0.447355	-0.045471	-100.760788	-82.284048	100.537176	39.979010430	116.339136316	39.185387
25317	5507024	13.141871	-3.451931	1.475206	-0.141665	-0.424901	-0.054060	-101.238433	-82.280388	100.998635	39.979010426	116.339136296	39.185502
25318	5507049	13.344185	-3.448208	1.571076	-0.130580	-0.407285	-0.059642	-101.696991	-82.277508	101.442438	39.979010421	116.339136276	39.185640
25319	5507074	13.558978	-3.429259	1.648388	-0.115687	-0.388673	-0.069971	-102.136129	-82.276158	101.868800	39.979010416	116.339136256	39.186524
25320	5507099	13.787498	-3.433718	1.736289	-0.090791	-0.372700	-0.073993	-102.555990	-82.275431	102.279307	39.979010411	116.339136236	39.186713
25321	5507124	14.024269	-3.427274	1.828218	-0.070965	-0.356637	-0.084718	-102.958922	-82.276314	102.675595	39.979010406	116.339136216	39.186930
25322	5507149	14.241800	-3.434449	1.896088	-0.052349	-0.343402	-0.085704	-103.345898	-82.277399	103.058472	39.979010401	116.339136195	39.187175
25323	5507174	14.473199	-3.434644	1.929476	-0.037624	-0.338855	-0.090806	-103.727469	-82.279002	103.438021	39.979010395	116.339136174	39.187458
25324	5507199	14.637217	-3.393386	1.940341	-0.033137	-0.328781	-0.096057	-104.099565	-82.281346	103.808656	39.979010390	116.339136154	39.187765
