PacketCounter	SampleTimeFine	Acc_X	Acc_Y	Acc_Z	Gyr_X	Gyr_Y	Gyr_Z	Roll	Pitch	Yaw	Latitude	Longitude	Altitude
04513	6603374	9.537235	-1.547598	1.564963	0.008202	0.019769	-0.003235	-45.448009	-77.062282	-136.214205	39.979145902	116.338928754	47.216657
04514	6603399	9.533114	-1.532503	1.571649	0.007296	0.019777	0.001352	-45.439417	-77.060964	-136.221969	39.979145900	116.338928756	47.216401
04515	6603424	9.526191	-1.549012	1.572928	0.008950	0.021310	-0.001967	-45.428458	-77.059829	-136.231919	39.979145899	116.338928757	47.216145
04516	6603449	9.495893	-1.542134	1.572932	0.004038	0.020012	-0.000247	-45.419533	-77.058650	-136.240504	39.979145897	116.338928758	47.215888
04517	6603474	9.490360	-1.546244	1.574265	0.006822	0.025447	-0.005069	-45.405688	-77.057415	-136.253728	39.979145895	116.338928759	47.217325
04518	6603499	9.491782	-1.521477	1.571662	0.000662	0.020525	-0.008194	-45.393544	-77.056994	-136.266111	39.979145894	116.338928760	47.217070
04519	6603524	9.462876	-1.506323	1.570369	-0.009017	0.023675	-0.006013	-45.382345	-77.056033	-136.278948	39.979145892	116.338928762	47.216814
04520	6603549	9.454574	-1.514609	1.578302	-0.012475	0.021246	-0.007549	-45.372048	-77.055472	-136.291368	39.979145890	116.338928763	47.216557
04521	6603574	9.450488	-1.471985	1.582466	-0.016008	0.024571	-0.006133	-45.361404	-77.054432	-136.304663	39.979145888	116.338928764	47.216299
04522	6603599	9.422950	-1.471930	1.575774	-0.019039	0.024205	-0.005278	-45.351732	-77.053340	-136.317406	39.979145887	116.338928765	47.216041
04523	6603624	9.398079	-1.481662	1.595661	-0.021712	0.018419	-0.010452	-45.342743	-77.053359	-136.329841	39.979145885	116.338928767	47.215783
04524	6603649	9.410456	-1.500933	1.594309	-0.038087	0.015523	-0.002529	-45.340854	-77.052861	-136.337399	39.979145883	116.338928768	47.215523
04525	6603674	9.396700	-1.485751	1.598322	-0.038718	0.011663	-0.001653	-45.341150	-77.052662	-136.342806	39.979145882	116.338928769	47.214002
04526	6603699	9.388444	-1.488505	1.595631	-0.044431	0.010815	-0.003645	-45.341767	-77.052752	-136.348724	39.979145880	116.338928770	47.213739
04527	6603724	9.387060	-1.494019	1.588970	-0.038321	0.008081	-0.000010	-45.344312	-77.052747	-136.351765	39.979145878	116.338928772	47.213475
04528	6603749	9.396720	-1.478903	1.593052	-0.043365	0.006178	-0.000362	-45.348269	-77.052969	-136.354099	39.979145876	116.338928773	47.213210
04529	6603774	9.415934	-1.521585	1.600874	-0.043260	0.005017	0.002533	-45.353994	-77.053013	-136.354604	39.979145875	116.338928774	47.212945
04530	6603799	9.440739	-1.524341	1.596895	-0.044535	0.005472	0.003025	-45.359915	-77.052961	-136.355095	39.979145873	116.338928775	47.212678
04531	6603824	9.451820	-1.510496	1.579675	-0.049259	0.002077	0.000413	-45.366874	-77.053518	-136.355215	39.979145871	116.338928777	47.212411
04532	6603849	9.451783	-1.538034	1.578228	-0.050087	0.001410	-0.001666	-45.373338	-77.054353	-136.355965	39.979145870	116.338928778	47.212143
04533	6603874	9.460043	-1.562740	1.571518	-0.047803	0.004835	-0.001276	-45.378126	-77.054804	-136.358097	39.979145868	116.338928779	47.216645
04534	6603899	9.437998	-1.536671	1.584883	-0.045526	0.007033	0.001256	-45.382722	-77.054775	-136.360094	39.979145866	116.338928781	47.216381
04535	6603924	9.462746	-1.564185	1.590134	-0.056052	0.005302	-0.000460	-45.388842	-77.055096	-136.362072	39.979145864	116.338928782	47.216116
04536	6603949	9.488905	-1.542292	1.612821	-0.061512	0.009748	-0.001068	-45.393506	-77.055032	-136.366348	39.979145863	116.338928783	47.215850
04537	6603974	9.484750	-1.553295	1.615410	-0.058769	0.009057	-0.000104	-45.398506	-77.054938	-136.369876	39.979145861	116.338928784	47.215585
04538	6603999	9.498460	-1.556127	1.642034	-0.062306	0.006981	0.004649	-45.407013	-77.054569	-136.370326	39.979145859	116.338928786	47.215318
04539	6604024	9.492969	-1.569842	1.623365	-0.062609	0.007088	-0.000760	-45.413149	-77.054741	-136.373252	39.979145857	116.338928787	47.215052
04540	6604049	9.486046	-1.557520	1.644678	-0.065534	0.003272	-0.001538	-45.421058	-77.055376	-136.374789	39.979145856	116.338928788	47.214785
04541	6604074	9.532965	-1.513498	1.640876	-0.063780	0.001249	-0.001523	-45.429620	-77.056213	-136.375398	39.979145854	116.338928790	47.217250
04542	6604099	9.550873	-1.519008	1.640881	-0.064351	0.004788	0.005582	-45.439801	-77.055969	-136.374430	39.979145852	116.338928791	47.216985
04543	6604124	9.554986	-1.525915	1.646164	-0.060400	0.002919	0.004105	-45.449600	-77.056064	-136.373273	39.979145850	116.338928792	47.216721
04544	6604149	9.543912	-1.565782	1.643361	-0.059663	0.003383	0.009519	-45.461454	-77.055559	-136.369900	39.979145849	116.338928794	47.216457
04545	6604174	9.543924	-1.589112	1.618033	-0.055996	0.005777	0.012876	-45.473186	-77.054471	-136.366113	39.979145847	116.338928795	47.216193
04546	6604199	9.579771	-1.606918	1.604688	-0.054896	0.007679	0.004773	-45.480374	-77.054020	-136.366827	39.979145845	116.338928797	47.215929
04547	6604224	9.554978	-1.595932	1.602049	-0.049509	0.011864	0.005190	-45.485112	-77.053105	-136.369262	39.979145844	116.338928798	47.215665
04548	6604249	9.575631	-1.600068	1.610040	-0.044693	0.014411	0.002396	-45.486809	-77.052220	-136.374110	39.979145842	116.338928799	47.215401
04549	6604274	9.582510	-1.584994	1.622042	-0.039487	0.019208	-0.002787	-45.483366	-77.051383	-136.383467	39.979145840	116.338928801	47.214868
04550	6604299	9.568780	-1.571205	1.614093	-0.030407	0.020859	-0.005862	-45.476546	-77.050694	-136.394955	39.979145838	116.338928802	47.214605
04551	6604324	9.532905	-1.586354	1.619375	-0.034149	0.022696	-0.002308	-45.471000	-77.049457	-136.405685	39.979145837	116.338928804	47.214341
04552	6604349	9.545233	-1.596071	1.647260	-0.029108	0.021045	-0.001894	-45.465648	-77.048343	-136.415476	39.979145835	116.338928805	47.214078
04553	6604374	9.539754	-1.582293	1.640660	-0.020342	0.018890	-0.005153	-45.458574	-77.047778	-136.425745	39.979145833	116.338928806	47.213815
04554	6604399	9.521805	-1.586480	1.653921	-0.010771	0.020756	-0.002815	-45.450323	-77.046787	-136.435815	39.979145831	116.338928808	47.213551
04555	6604424	9.524545	-1.590601	1.656581	-0.009936	0.011720	-0.004435	-45.445256	-77.046869	-136.442496	39.979145830	116.338928809	47.213288
04556	6604449	9.519025	-1.603018	1.652532	-0.007826	0.008726	-0.001462	-45.442514	-77.046949	-136.446480	39.979145828	116.338928811	47.213025
04557	6604474	9.524565	-1.593334	1.648586	-0.004131	0.006597	-0.003193	-45.439431	-77.047419	-136.450271	39.979145826	116.338928812	47.212548
04558	6604499	9.542450	-1.593384	1.657889	-0.000380	0.002331	-0.003852	-45.437416	-77.048385	-136.452416	39.979145825	116.338928813	47.212284
04559	6604524	9.520365	-1.603030	1.664505	0.000760	-0.001864	-0.004473	-45.436827	-77.049835	-136.452929	39.979145823	116.338928815	47.212021
04560	6604549	9.527272	-1.601649	1.661833	0.006051	0.000671	-0.003864	-45.434621	-77.050970	-136.454324	39.979145821	116.338928816	47.211757
04561	6604574	9.554830	-1.612618	1.656518	0.004503	-0.004436	-0.002550	-45.435478	-77.052483	-136.452803	39.979145819	116.338928818	47.211494
04562	6604599	9.538302	-1.607117	1.651205	0.002877	-0.004843	0.000267	-45.437981	-77.053749	-136.449833	39.979145818	116.338928819	47.211231
04563	6604624	9.549295	-1.619529	1.657830	0.002804	-0.003615	0.001404	-45.440446	-77.054776	-136.446912	39.979145816	116.338928821	47.210967
04564	6604649	9.542430	-1.615365	1.655179	0.004825	-0.001864	-0.004058	-45.439457	-77.056185	-136.447239	39.979145814	116.338928822	47.210704
04565	6604674	9.553510	-1.608421	1.635246	0.000848	-0.002730	-0.003210	-45.439792	-77.057594	-136.446790	39.979145813	116.338928824	47.213299
04566	6604699	9.560387	-1.611182	1.639244	-0.001094	0.003427	-0.002915	-45.437800	-77.058354	-136.449016	39.979145811	116.338928825	47.213039
04567	6604724	9.564564	-1.605657	1.625953	-0.004160	0.003973	0.003035	-45.438607	-77.058452	-136.448819	39.979145809	116.338928827	47.212779
04568	6604749	9.552166	-1.602882	1.624632	-0.003424	0.004050	0.000405	-45.438125	-77.058811	-136.449838	39.979145807	116.338928828	47.212519
04569	6604774	9.554939	-1.591866	1.623350	-0.006986	0.005624	-0.004788	-45.435182	-77.059541	-136.453905	39.979145806	116.338928830	47.212260
04570	6604799	9.553510	-1.604300	1.637926	-0.007813	0.004956	0.001056	-45.435210	-77.059742	-136.455045	39.979145804	116.338928832	47.212000
04571	6604824	9.567335	-1.605615	1.617972	-0.007267	0.002082	-0.000504	-45.435754	-77.060392	-136.455576	39.979145802	116.338928833	47.211741
04572	6604849	9.567362	-1.602857	1.608663	-0.003996	-0.001402	0.004180	-45.439426	-77.060913	-136.452416	39.979145801	116.338928835	47.211482
04573	6604874	9.563233	-1.575358	1.623388	-0.007255	-0.004140	0.003333	-45.444410	-77.061796	-136.448388	39.979145799	116.338928836	47.218107
04574	6604899	9.571511	-1.594550	1.608711	-0.009400	-0.004436	0.004451	-45.450324	-77.062595	-136.443722	39.979145797	116.338928838	47.217855
04575	6604924	9.559224	-1.586160	1.567490	-0.009550	-0.004815	0.008662	-45.458270	-77.063001	-136.436993	39.979145796	116.338928839	47.217603
04576	6604949	9.574409	-1.594343	1.551539	-0.004245	-0.009191	0.004935	-45.465772	-77.064228	-136.429941	39.979145794	116.338928841	47.217352
04577	6604974	9.582734	-1.598405	1.524923	0.006458	-0.008255	0.004956	-45.471335	-77.065358	-136.423304	39.979145792	116.338928842	47.217100
04578	6604999	9.600720	-1.605126	1.492981	0.006913	-0.005797	0.003763	-45.475219	-77.066363	-136.418324	39.979145791	116.338928844	47.216849
04579	6605024	9.589755	-1.588538	1.477116	0.017028	-0.005873	-0.000119	-45.475990	-77.067772	-136.415051	39.979145789	116.338928846	47.216598
04580	6605049	9.607735	-1.587116	1.450477	0.023080	-0.004460	0.005901	-45.477900	-77.068424	-136.409719	39.979145787	116.338928847	47.216347
04581	6605074	9.636669	-1.604963	1.442487	0.028393	0.001752	0.001854	-45.474514	-77.068866	-136.409040	39.979145786	116.338928849	47.220862
04582	6605099	9.633988	-1.591082	1.418577	0.032103	0.005439	-0.001580	-45.467457	-77.069288	-136.411584	39.979145784	116.338928850	47.220617
04583	6605124	9.640892	-1.596566	1.407956	0.030151	0.011767	-0.002353	-45.457526	-77.069153	-136.417363	39.979145782	116.338928852	47.220372
04584	6605149	9.632627	-1.562237	1.425333	0.029697	0.016598	-0.001608	-45.445839	-77.068456	-136.425010	39.979145781	116.338928853	47.220128
04585	6605174	9.618898	-1.556669	1.410738	0.025986	0.022845	-0.000261	-45.432498	-77.066994	-136.434900	39.979145779	116.338928855	47.219884
04586	6605199	9.577447	-1.552728	1.459950	0.024185	0.029925	0.002486	-45.417474	-77.064539	-136.446781	39.979145777	116.338928856	47.219640
04587	6605224	9.577411	-1.552792	1.478520	0.024575	0.034140	0.004435	-45.401382	-77.061461	-136.459701	39.979145775	116.338928858	47.219396
04588	6605249	9.575932	-1.572159	1.505044	0.025472	0.040336	-0.004682	-45.378427	-77.058688	-136.479531	39.979145774	116.338928859	47.219152
04589	6605274	9.559250	-1.591588	1.550205	0.023600	0.039609	-0.002621	-45.356974	-77.055776	-136.498095	39.979145772	116.338928861	47.220575
04590	6605299	9.511031	-1.562744	1.563583	0.026909	0.041585	-0.005616	-45.332870	-77.052970	-136.518894	39.979145770	116.338928862	47.220333
04591	6605324	9.498492	-1.586301	1.608691	0.029776	0.042517	-0.002453	-45.309337	-77.049745	-136.538685	39.979145769	116.338928864	47.220090
04592	6605349	9.465441	-1.554669	1.619431	0.034258	0.041416	-0.007637	-45.283388	-77.047156	-136.560296	39.979145767	116.338928865	47.219848
04593	6605374	9.483280	-1.572645	1.636671	0.039770	0.042574	-0.006211	-45.256773	-77.044304	-136.581782	39.979145765	116.338928867	47.219605
04594	6605399	9.455689	-1.579540	1.645928	0.036402	0.037254	-0.009881	-45.231393	-77.042360	-136.602496	39.979145764	116.338928868	47.219361
04595	6605424	9.444690	-1.586370	1.632587	0.036483	0.036110	-0.010006	-45.206458	-77.040541	-136.622740	39.979145762	116.338928870	47.219117
04598	6605449	9.457053	-1.619390	1.629854	0.037827	0.035414	-0.009868	-45.181706	-77.038777	-136.642600	39.979145760	116.338928871	47.218873
04599	6605474	9.455714	-1.611106	1.620539	0.036134	0.035387	-0.007555	-45.152630	-77.036363	-136.667187	39.979146244	116.338928487	47.222903
04600	6605499	9.455726	-1.613833	1.613886	0.037909	0.036497	-0.005467	-45.129333	-77.034038	-136.685542	39.979146242	116.338928488	47.222671
04601	6605524	9.451606	-1.608307	1.607289	0.034815	0.033064	-0.010142	-45.105947	-77.032533	-136.704442	39.979146241	116.338928490	47.222438
04602	6605549	9.469504	-1.576745	1.631313	0.033078	0.031693	-0.008960	-45.083938	-77.031045	-136.722186	39.979146239	116.338928491	47.222206
04603	6605574	9.492902	-1.574038	1.647291	0.034828	0.029667	-0.008628	-45.062721	-77.029727	-136.738860	39.979146238	116.338928493	47.221973
04604	6605599	9.513568	-1.567201	1.655310	0.040017	0.023986	-0.006695	-45.044113	-77.028787	-136.752094	39.979146236	116.338928494	47.221740
04605	6605624	9.549431	-1.556179	1.643399	0.046514	0.020166	-0.011230	-45.024265	-77.028692	-136.765645	39.979146235	116.338928496	47.221506
04606	6605649	9.590768	-1.583656	1.630015	0.053239	0.020097	-0.011110	-45.003536	-77.028591	-136.779111	39.979146233	116.338928497	47.221273
04607	6605674	9.583886	-1.554801	1.644740	0.054209	0.017840	-0.013427	-44.982642	-77.028951	-136.792605	39.979146231	116.338928498	47.217769
04608	6605699	9.585242	-1.571307	1.638044	0.054522	0.016056	-0.009841	-44.964065	-77.029129	-136.803676	39.979146230	116.338928500	47.217534
04609	6605724	9.572842	-1.547950	1.652770	0.049448	0.018758	-0.011958	-44.944094	-77.029246	-136.816921	39.979146228	116.338928501	47.217299
04610	6605749	9.568694	-1.546609	1.662065	0.050183	0.019407	-0.006795	-44.926007	-77.028774	-136.828127	39.979146227	116.338928503	47.217063
04611	6605774	9.571316	-1.564667	1.704551	0.054966	0.016500	-0.009900	-44.907143	-77.028910	-136.839425	39.979146225	116.338928504	47.216828
04612	6605799	9.565714	-1.574375	1.735118	0.050242	0.017366	-0.011699	-44.887784	-77.029139	-136.851927	39.979146224	116.338928506	47.216594
04613	6605824	9.549184	-1.549685	1.743192	0.054999	0.017618	-0.011472	-44.867732	-77.029319	-136.864440	39.979146222	116.338928507	47.216359
04614	6605849	9.557438	-1.552443	1.751115	0.061272	0.018179	-0.011361	-44.846584	-77.029429	-136.877156	39.979146220	116.338928509	47.216125
04615	6605874	9.542221	-1.556656	1.776375	0.064307	0.014153	-0.013220	-44.825947	-77.030135	-136.888902	39.979146219	116.338928510	47.210736
04616	6605899	9.550473	-1.541567	1.787093	0.069335	0.017457	-0.012492	-44.803461	-77.030431	-136.901806	39.979146217	116.338928512	47.210497
04617	6605924	9.533985	-1.523641	1.777795	0.062878	0.018206	-0.009525	-44.782880	-77.030350	-136.913704	39.979146216	116.338928514	47.210258
04618	6605949	9.529841	-1.516811	1.789780	0.065625	0.015686	-0.012334	-44.761769	-77.030808	-136.925743	39.979146214	116.338928515	47.210020
04619	6605974	9.533920	-1.525118	1.807057	0.056517	0.014377	-0.011648	-44.742838	-77.031329	-136.936882	39.979146213	116.338928517	47.209781
04620	6605999	9.528513	-1.511233	1.767227	0.049707	0.018398	-0.006424	-44.725429	-77.030914	-136.947461	39.979146211	116.338928518	47.209543
04621	6606024	9.505160	-1.493275	1.752633	0.039124	0.010447	-0.012852	-44.710175	-77.031954	-136.957384	39.979146209	116.338928520	47.209305
04622	6606049	9.496873	-1.502889	1.749948	0.035590	0.012183	-0.007538	-44.697015	-77.032282	-136.965677	39.979146208	116.338928522	47.209066
04623	6606074	9.483142	-1.506960	1.732617	0.032282	0.010915	-0.003664	-44.686597	-77.032349	-136.971643	39.979146206	116.338928523	47.210840
04624	6606099	9.495645	-1.510925	1.688700	0.023451	0.007239	-0.004296	-44.678772	-77.032853	-136.976247	39.979146205	116.338928525	47.210603
04625	6606124	9.484704	-1.502549	1.658169	0.020730	0.011057	-0.003502	-44.670017	-77.032889	-136.982203	39.979146203	116.338928527	47.210365
04626	6606149	9.495837	-1.509244	1.615589	0.017399	0.012200	-0.004035	-44.661005	-77.032861	-136.988915	39.979146202	116.338928528	47.210127
04627	6606174	9.484778	-1.527137	1.611557	0.019023	0.010170	-0.003767	-44.652766	-77.033013	-136.994594	39.979146200	116.338928530	47.209889
04628	6606199	9.523449	-1.503675	1.591705	0.019340	0.010365	-0.003387	-44.644564	-77.033107	-137.000189	39.979146198	116.338928532	47.209651
04629	6606224	9.495899	-1.520148	1.580968	0.018589	0.005811	-0.010686	-44.635229	-77.034399	-137.007056	39.979146197	116.338928533	47.209412
04630	6606249	9.484958	-1.484328	1.567803	0.022306	0.011982	-0.008962	-44.623426	-77.034888	-137.015910	39.979146195	116.338928535	47.209173
04631	6606274	9.505599	-1.496713	1.571746	0.026847	0.009429	-0.009741	-44.611742	-77.035716	-137.023973	39.979146194	116.338928537	47.209945
04632	6606299	9.494636	-1.488374	1.551831	0.026183	0.004973	-0.006916	-44.603352	-77.036714	-137.028755	39.979146192	116.338928538	47.209706
04633	6606324	9.508467	-1.474592	1.538581	0.028105	0.008227	-0.005704	-44.593799	-77.037257	-137.034447	39.979146190	116.338928540	47.209467
04634	6606349	9.530492	-1.497948	1.535834	0.028901	0.002070	-0.005886	-44.586742	-77.038447	-137.037461	39.979146189	116.338928542	47.209227
04635	6606374	9.533293	-1.474537	1.533260	0.029592	0.007099	-0.004624	-44.577947	-77.038997	-137.042157	39.979146187	116.338928543	47.208988
04636	6606399	9.558039	-1.493857	1.541194	0.026722	0.008060	-0.004393	-44.569246	-77.039425	-137.047179	39.979146186	116.338928545	47.208748
04637	6606424	9.556624	-1.498026	1.554498	0.027303	0.006899	-0.005521	-44.560467	-77.040085	-137.052194	39.979146184	116.338928547	47.208508
04638	6606449	9.562091	-1.491206	1.578468	0.022464	0.011985	-0.005312	-44.550253	-77.040205	-137.059395	39.979146182	116.338928548	47.208268
04639	6606474	9.571647	-1.524331	1.592979	0.021334	0.012803	-0.009784	-44.537859	-77.040690	-137.068997	39.979146181	116.338928550	47.208057
04640	6606499	9.577118	-1.538119	1.599604	0.018595	0.010940	-0.007604	-44.527637	-77.041146	-137.076773	39.979146179	116.338928552	47.207817
04641	6606524	9.582602	-1.531300	1.616914	0.015992	0.017896	-0.009014	-44.514126	-77.041033	-137.088308	39.979146177	116.338928554	47.207578
04642	6606549	9.575664	-1.517657	1.644860	0.015970	0.018699	-0.010397	-44.499654	-77.040976	-137.100831	39.979146176	116.338928555	47.207339
04643	6606574	9.585279	-1.506693	1.666193	0.009847	0.017792	-0.016165	-44.483893	-77.041590	-137.115577	39.979146174	116.338928557	47.207100
04644	6606599	9.567330	-1.519095	1.670133	0.012262	0.015432	-0.012876	-44.470276	-77.042115	-137.127769	39.979146173	116.338928559	47.206861
04645	6606624	9.564584	-1.532853	1.659428	0.011571	0.015968	-0.010934	-44.457385	-77.042389	-137.139316	39.979146171	116.338928560	47.206623
04646	6606649	9.556292	-1.515034	1.679433	0.005902	0.015593	-0.007144	-44.447154	-77.042320	-137.148968	39.979146169	116.338928562	47.206384
04647	6606674	9.536995	-1.513640	1.678090	0.002760	0.011458	-0.004205	-44.440481	-77.042380	-137.155429	39.979146168	116.338928564	47.210269
04648	6606699	9.545318	-1.525919	1.656795	-0.004189	0.005683	-0.004886	-44.437018	-77.043098	-137.159619	39.979146166	116.338928566	47.210035
04649	6606724	9.546707	-1.519050	1.655485	-0.003883	0.010729	-0.010492	-44.428819	-77.043862	-137.168623	39.979146164	116.338928567	47.209800
04650	6606749	9.552318	-1.506556	1.620967	-0.008090	0.005309	-0.008817	-44.424328	-77.045013	-137.174440	39.979146163	116.338928569	47.209566
04651	6606774	9.548104	-1.528630	1.639490	-0.009975	0.012499	-0.007391	-44.417608	-77.045285	-137.182823	39.979146161	116.338928571	47.209332
04652	6606799	9.530252	-1.534007	1.611540	-0.011380	0.002570	-0.005634	-44.416197	-77.046396	-137.185964	39.979146160	116.338928573	47.209098
04653	6606824	9.539992	-1.543487	1.568996	-0.014575	0.004244	-0.004342	-44.415088	-77.047207	-137.189264	39.979146158	116.338928574	47.208863
04654	6606849	9.548312	-1.547531	1.544995	-0.014523	0.005922	-0.002515	-44.414053	-77.047662	-137.192482	39.979146156	116.338928576	47.208629
04655	6606874	9.545584	-1.543390	1.535718	-0.008869	0.006260	-0.001027	-44.412723	-77.047934	-137.195170	39.979146155	116.338928578	47.211462
04656	6606899	9.544179	-1.532426	1.555707	-0.004755	0.011875	0.001957	-44.409683	-77.047333	-137.199008	39.979146153	116.338928580	47.211230
04657	6606924	9.527571	-1.558614	1.564938	-0.007361	0.013714	-0.002219	-44.404359	-77.046961	-137.205575	39.979146151	116.338928581	47.210999
04658	6606949	9.541405	-1.558536	1.542311	0.008503	0.014994	-0.000142	-44.397129	-77.046251	-137.211764	39.979146150	116.338928583	47.210767
04659	6606974	9.534519	-1.555745	1.544998	0.011627	0.014910	-0.005277	-44.387203	-77.046063	-137.220261	39.979146148	116.338928585	47.210535
04660	6606999	9.523502	-1.540672	1.551662	0.022210	0.019272	-0.005446	-44.373787	-77.045445	-137.230783	39.979146147	116.338928587	47.210303
04661	6607024	9.524833	-1.546233	1.568943	0.022794	0.017330	-0.007831	-44.360072	-77.045265	-137.241526	39.979146145	116.338928588	47.210071
04662	6607049	9.520659	-1.536683	1.584953	0.027569	0.026080	-0.003585	-44.343756	-77.043762	-137.254237	39.979146143	116.338928590	47.209839
04663	6607074	9.515131	-1.536703	1.596887	0.031437	0.025544	-0.005254	-44.326380	-77.042481	-137.267468	39.979146142	116.338928592	47.205519
04664	6607099	9.512353	-1.513406	1.614261	0.028107	0.026666	-0.006601	-44.308396	-77.041218	-137.281812	39.979146140	116.338928594	47.205282
04665	6607124	9.526047	-1.503918	1.654203	0.030594	0.026810	-0.005388	-44.290536	-77.039819	-137.295662	39.979146138	116.338928595	47.205046
04666	6607149	9.477769	-1.514986	1.670084	0.027022	0.025137	-0.011139	-44.271355	-77.039165	-137.311393	39.979146137	116.338928597	47.204808
04667	6607174	9.495638	-1.528770	1.682029	0.029537	0.021143	-0.006838	-44.255467	-77.038489	-137.323375	39.979146135	116.338928599	47.204571
04668	6607199	9.497046	-1.505386	1.682082	0.029641	0.024188	-0.010864	-44.236449	-77.037903	-137.338554	39.979146133	116.338928601	47.204333
04669	6607224	9.498354	-1.519226	1.704668	0.030051	0.020169	-0.008279	-44.220271	-77.037470	-137.350759	39.979146132	116.338928602	47.204095
04670	6607249	9.498281	-1.526203	1.732553	0.035530	0.016475	-0.012887	-44.202857	-77.037876	-137.363427	39.979146130	116.338928604	47.203857
04671	6607274	9.523140	-1.506922	1.716673	0.030755	0.013098	-0.014241	-44.186986	-77.038763	-137.375213	39.979146129	116.338928606	47.201710
04672	6607299	9.499661	-1.535830	1.717922	0.021856	0.004736	-0.010343	-44.177755	-77.040119	-137.381493	39.979146127	116.338928608	47.201470
04673	6607324	9.499737	-1.526095	1.696678	0.016487	0.007547	-0.009507	-44.168446	-77.041102	-137.388644	39.979146125	116.338928610	47.201230
04674	6607349	9.539701	-1.537076	1.691333	0.014795	0.003396	-0.007565	-44.162045	-77.042318	-137.393058	39.979146124	116.338928611	47.200989
04675	6607374	9.534255	-1.514984	1.678095	0.017394	0.002018	-0.010374	-44.154613	-77.043956	-137.398147	39.979146122	116.338928613	47.200749
04676	6607399	9.506686	-1.520503	1.675389	0.018860	-0.003693	-0.006148	-44.151335	-77.045759	-137.398760	39.979146120	116.338928615	47.200508
04677	6607424	9.519110	-1.505357	1.674151	0.016034	-0.005074	-0.005664	-44.149277	-77.047656	-137.398535	39.979146119	116.338928617	47.200268
04678	6607449	9.509545	-1.490134	1.648923	0.012514	-0.003298	-0.005817	-44.146884	-77.049386	-137.399172	39.979146117	116.338928619	47.200027
04679	6607474	9.531628	-1.490092	1.640928	0.010435	-0.007136	-0.004196	-44.147179	-77.051348	-137.397357	39.979146116	116.338928621	47.197965
04680	6607499	9.534405	-1.499679	1.627605	0.007623	-0.013275	-0.003521	-44.150843	-77.053874	-137.392498	39.979146114	116.338928623	47.197721
04681	6607524	9.564766	-1.480376	1.614417	0.008702	-0.008678	-0.001566	-44.153232	-77.055732	-137.388788	39.979146112	116.338928625	47.197478
04682	6607549	9.553826	-1.452803	1.602519	0.003043	-0.016899	-0.004564	-44.158662	-77.058734	-137.382789	39.979146111	116.338928626	47.197235
04683	6607574	9.533189	-1.458249	1.585180	0.002617	-0.013906	-0.003815	-44.163191	-77.061354	-137.377779	39.979146109	116.338928628	47.196992
04684	6607599	9.535929	-1.473349	1.577182	-0.002983	-0.011960	-0.001533	-44.168698	-77.063546	-137.372587	39.979146107	116.338928630	47.196749
04685	6607624	9.513880	-1.487089	1.571767	-0.010179	-0.010568	-0.002158	-44.174354	-77.065657	-137.368300	39.979146106	116.338928632	47.196505
04686	6607649	9.523468	-1.509158	1.583689	-0.012708	-0.015077	-0.002737	-44.182075	-77.068289	-137.362267	39.979146104	116.338928634	47.196261
04687	6607674	9.504110	-1.518861	1.608921	-0.013126	-0.013860	0.002097	-44.191492	-77.070313	-137.354554	39.979146102	116.338928636	47.194283
04688	6607699	9.453116	-1.533990	1.602178	-0.018008	-0.010234	0.002433	-44.200184	-77.071931	-137.348303	39.979146101	116.338928638	47.194036
04689	6607724	9.480624	-1.554630	1.608797	-0.019991	-0.019196	0.005005	-44.214213	-77.074212	-137.336869	39.979146099	116.338928640	47.193790
04690	6607749	9.486177	-1.532600	1.607527	-0.015733	-0.018466	-0.000310	-44.224940	-77.076949	-137.328195	39.979146097	116.338928642	47.193543
04691	6607774	9.490255	-1.531329	1.626164	-0.006711	-0.020462	-0.001997	-44.234494	-77.080059	-137.319400	39.979146096	116.338928643	47.193296
04692	6607799	9.513774	-1.518824	1.596973	-0.002144	-0.020398	-0.001708	-44.243500	-77.083133	-137.310496	39.979146094	116.338928645	47.193048
04693	6607824	9.523385	-1.523026	1.606263	-0.001147	-0.020239	-0.003526	-44.251484	-77.086371	-137.302493	39.979146092	116.338928647	47.192800
04694	6607849	9.527552	-1.533927	1.590263	0.001545	-0.022359	-0.004630	-44.259517	-77.089938	-137.294045	39.979146091	116.338928649	47.192552
04695	6607874	9.538558	-1.510623	1.606299	0.007413	-0.017050	-0.005533	-44.263994	-77.093050	-137.288384	39.979146089	116.338928651	47.189620
04696	6607899	9.541378	-1.520131	1.574343	0.001422	-0.017753	-0.002438	-44.271024	-77.095925	-137.280984	39.979146087	116.338928653	47.189369
04697	6607924	9.524863	-1.511842	1.574357	0.002012	-0.015220	-0.002690	-44.276753	-77.098564	-137.274831	39.979146086	116.338928655	47.189118
04699	6607949	9.535938	-1.487092	1.569145	-0.003187	-0.013103	-0.005241	-44.281163	-77.101242	-137.270796	39.979146084	116.338928657	47.188867
04701	6607974	9.533138	-1.494023	1.582426	-0.007305	-0.006327	-0.006476	-44.281383	-77.102726	-137.278817	39.979146489	116.338928347	47.192105
04702	6607999	9.523426	-1.514677	1.594351	-0.006624	-0.005120	-0.006282	-44.282334	-77.104689	-137.278836	39.979146487	116.338928349	47.191865
04703	6608024	9.528857	-1.512054	1.631578	-0.013264	-0.001718	-0.004454	-44.283569	-77.106120	-137.279538	39.979146486	116.338928351	47.191625
04704	6608049	9.517744	-1.513614	1.667450	-0.014849	0.000191	-0.007986	-44.282614	-77.107709	-137.282720	39.979146484	116.338928353	47.191384
04705	6608074	9.520486	-1.499873	1.682140	-0.020619	0.002417	-0.004202	-44.283208	-77.108692	-137.285161	39.979146482	116.338928355	47.193226
04706	6608099	9.512179	-1.476597	1.708805	-0.019398	0.003955	-0.007083	-44.281665	-77.109804	-137.289615	39.979146481	116.338928357	47.192987
04707	6608124	9.490094	-1.487647	1.719385	-0.014645	0.003286	-0.008807	-44.278960	-77.111158	-137.294563	39.979146479	116.338928359	47.192748
04708	6608149	9.510703	-1.487732	1.744678	-0.016522	0.002812	-0.007059	-44.277513	-77.112385	-137.298495	39.979146478	116.338928360	47.192509
04709	6608174	9.480354	-1.487789	1.756622	-0.018844	0.002596	-0.004689	-44.277555	-77.113397	-137.301241	39.979146476	116.338928362	47.192269
04710	6608199	9.458238	-1.486532	1.788504	-0.009607	-0.002451	-0.010020	-44.276091	-77.115461	-137.304176	39.979146474	116.338928364	47.192029
04711	6608224	9.455525	-1.471333	1.773958	-0.004646	-0.003953	-0.004511	-44.277041	-77.117127	-137.303904	39.979146473	116.338928366	47.191789
04712	6608249	9.451368	-1.472743	1.785908	-0.005737	-0.003834	-0.013076	-44.274255	-77.119637	-137.307626	39.979146471	116.338928368	47.191548
04713	6608274	9.447158	-1.482476	1.811151	-0.006950	-0.003067	-0.012830	-44.271415	-77.122045	-137.311580	39.979146469	116.338928370	47.195417
04714	6608299	9.455449	-1.487918	1.799143	-0.002222	-0.008649	-0.012410	-44.270528	-77.124982	-137.312837	39.979146468	116.338928372	47.195180
04715	6608324	9.452679	-1.508552	1.789810	0.002316	-0.006750	-0.012186	-44.268260	-77.127703	-137.314844	39.979146466	116.338928374	47.194942
04716	6608349	9.459582	-1.497537	1.792475	0.004552	-0.001062	-0.013249	-44.262705	-77.129946	-137.319894	39.979146464	116.338928376	47.194703
04717	6608374	9.438967	-1.482361	1.777887	0.002496	-0.007026	-0.013699	-44.259850	-77.132846	-137.322476	39.979146463	116.338928378	47.194465
04718	6608399	9.452751	-1.483708	1.779246	0.005803	-0.007993	-0.014612	-44.256533	-77.135937	-137.325046	39.979146461	116.338928380	47.194225
04719	6608424	9.452774	-1.494639	1.761896	0.010449	-0.006126	-0.016274	-44.250985	-77.139002	-137.329222	39.979146459	116.338928382	47.193986
04720	6608449	9.443179	-1.484979	1.744650	0.002989	-0.001660	-0.019102	-44.243277	-77.141891	-137.336710	39.979146458	116.338928384	47.193746
04721	6608474	9.463880	-1.499987	1.723352	0.004214	0.006659	-0.022371	-44.230277	-77.144253	-137.349446	39.979146456	116.338928386	47.196560
04722	6608499	9.465306	-1.499959	1.704705	0.003383	0.010070	-0.023384	-44.215442	-77.146366	-137.364185	39.979146454	116.338928389	47.196322
04723	6608524	9.457093	-1.471035	1.698186	0.004987	0.016011	-0.024447	-44.197294	-77.147973	-137.382088	39.979146453	116.338928391	47.196084
04724	6608549	9.466729	-1.472437	1.700813	-0.001863	0.017478	-0.028591	-44.177615	-77.149842	-137.402566	39.979146451	116.338928393	47.195845
04725	6608574	9.440507	-1.499930	1.706060	-0.003660	0.025514	-0.029743	-44.154153	-77.150999	-137.427189	39.979146449	116.338928395	47.195605
04726	6608599	9.432282	-1.469676	1.703453	-0.006509	0.031829	-0.031658	-44.127471	-77.151696	-137.455534	39.979146448	116.338928397	47.195365
04727	6608624	9.436421	-1.479304	1.698087	-0.012453	0.033130	-0.034095	-44.099968	-77.152498	-137.485593	39.979146446	116.338928399	47.195124
04728	6608649	9.446056	-1.491622	1.692771	-0.022013	0.030681	-0.029325	-44.077054	-77.153074	-137.512350	39.979146444	116.338928401	47.194883
04729	6608674	9.454359	-1.488849	1.682142	-0.026689	0.034739	-0.033830	-44.051002	-77.153679	-137.543013	39.979146443	116.338928404	47.195641
04730	6608699	9.433604	-1.532914	1.691297	-0.021732	0.037184	-0.035116	-44.022588	-77.154157	-137.575369	39.979146441	116.338928406	47.195400
04731	6608724	9.448808	-1.539709	1.669996	-0.019632	0.040501	-0.049752	-43.985809	-77.155745	-137.615997	39.979146439	116.338928408	47.195158
04732	6608749	9.465346	-1.536959	1.664694	-0.009155	0.039400	-0.050485	-43.947669	-77.157514	-137.656482	39.979146438	116.338928410	47.194915
04733	6608774	9.444813	-1.492838	1.638234	-0.006431	0.047000	-0.050788	-43.905678	-77.158523	-137.700515	39.979146436	116.338928412	47.194672
04734	6608799	9.472327	-1.525864	1.636818	0.002678	0.050683	-0.053613	-43.859492	-77.159424	-137.747513	39.979146434	116.338928415	47.194429
04735	6608824	9.461261	-1.540980	1.643430	0.005947	0.060931	-0.059189	-43.805845	-77.159811	-137.801683	39.979146433	116.338928417	47.194185
04736	6608849	9.435188	-1.474936	1.639641	0.011429	0.065520	-0.069211	-43.744864	-77.160704	-137.862569	39.979146431	116.338928419	47.193940
04737	6608874	9.484861	-1.456977	1.619788	0.013062	0.080131	-0.071597	-43.676216	-77.160305	-137.931080	39.979146429	116.338928421	47.191652
04738	6608899	9.513756	-1.454288	1.638434	0.023055	0.090498	-0.077187	-43.599103	-77.159364	-138.006804	39.979146428	116.338928424	47.191404
04739	6608924	9.476492	-1.454416	1.666313	0.024688	0.101818	-0.078943	-43.516070	-77.157399	-138.088361	39.979146426	116.338928426	47.191156
04740	6608949	9.469481	-1.454564	1.712875	0.022776	0.112690	-0.081296	-43.427567	-77.154507	-138.175810	39.979146424	116.338928428	47.190908
04741	6608974	9.470778	-1.476682	1.735377	0.023742	0.117122	-0.085694	-43.335047	-77.151557	-138.267238	39.979146423	116.338928430	47.190659
04742	6608999	9.472111	-1.461626	1.762034	0.012864	0.122467	-0.093643	-43.238192	-77.148796	-138.364712	39.979146421	116.338928433	47.190410
04743	6609024	9.463774	-1.482349	1.783222	0.009747	0.121404	-0.096937	-43.140772	-77.146433	-138.463223	39.979146419	116.338928435	47.190160
04744	6609049	9.494033	-1.468693	1.808578	0.010310	0.132026	-0.099079	-43.037776	-77.143129	-138.567373	39.979146418	116.338928437	47.189910
04745	6609074	9.500863	-1.474298	1.831164	0.012431	0.137749	-0.113465	-42.925472	-77.140587	-138.680758	39.979146416	116.338928440	47.197984
04746	6609099	9.506374	-1.439950	1.847253	0.019073	0.145392	-0.122914	-42.804657	-77.138113	-138.801900	39.979146414	116.338928442	47.197743
04747	6609124	9.473416	-1.388986	1.835419	0.021628	0.147460	-0.124092	-42.682100	-77.135478	-138.924454	39.979146413	116.338928444	47.197501
04748	6609149	9.463671	-1.386418	1.873975	0.014398	0.159080	-0.123909	-42.555786	-77.131541	-139.051927	39.979146411	116.338928447	47.197259
04749	6609174	9.438779	-1.397480	1.905848	0.007808	0.158124	-0.124590	-42.430584	-77.127708	-139.179229	39.979146409	116.338928449	47.197016
04750	6609199	9.485518	-1.449877	1.918999	0.003372	0.157613	-0.125502	-42.305885	-77.123956	-139.306669	39.979146407	116.338928452	47.196773
04751	6609224	9.529567	-1.448556	1.937661	0.001098	0.165211	-0.138727	-42.172249	-77.120608	-139.443611	39.979146406	116.338928454	47.196530
04752	6609249	9.526909	-1.381126	1.940561	0.008105	0.166577	-0.147732	-42.032920	-77.117907	-139.585367	39.979146404	116.338928457	47.196288
04753	6609274	9.504889	-1.356362	1.936611	0.013052	0.178973	-0.145440	-41.888826	-77.113587	-139.731285	39.979146402	116.338928459	47.199085
04754	6609299	9.530950	-1.386771	1.972434	0.021155	0.176755	-0.144932	-41.744832	-77.109374	-139.875912	39.979146401	116.338928462	47.198845
04755	6609324	9.547313	-1.436458	2.016138	0.021008	0.179550	-0.156569	-41.594347	-77.105888	-140.027222	39.979146399	116.338928464	47.198606
04756	6609349	9.606553	-1.451601	2.006828	0.024931	0.174829	-0.166401	-41.440726	-77.103751	-140.181175	39.979146397	116.338928467	47.198367
04757	6609374	9.499258	-1.384008	1.972438	0.028892	0.176120	-0.168201	-41.285212	-77.101554	-140.336490	39.979146395	116.338928469	47.198129
04758	6609399	9.466126	-1.388225	1.996299	0.023688	0.178088	-0.164473	-41.131442	-77.098699	-140.490780	39.979146394	116.338928472	47.197890
04759	6609424	9.528030	-1.444679	2.006796	0.018381	0.175127	-0.167844	-40.978125	-77.096388	-140.645388	39.979146392	116.338928475	47.197652
04760	6609449	9.471670	-1.384058	1.988335	0.006910	0.167772	-0.180569	-40.823493	-77.095975	-140.803032	39.979146390	116.338928477	47.197413
04761	6609474	9.477263	-1.360592	1.969809	0.008506	0.163859	-0.187218	-40.667083	-77.096512	-140.962264	39.979146389	116.338928480	47.200199
04762	6609499	9.576485	-1.331773	1.983270	0.008139	0.159971	-0.200795	-40.505838	-77.098639	-141.126510	39.979146387	116.338928483	47.199963
04763	6609524	9.642893	-1.246251	1.922444	0.015742	0.162390	-0.203942	-40.340973	-77.100691	-141.293351	39.979146385	116.338928486	47.199728
04764	6609549	9.601792	-1.155232	1.876185	0.024143	0.168210	-0.204006	-40.172474	-77.102003	-141.462685	39.979146383	116.338928488	47.199494
04765	6609574	9.519203	-1.164746	1.836183	0.024970	0.176993	-0.193574	-40.005290	-77.101280	-141.630548	39.979146382	116.338928491	47.199258
04766	6609599	9.543935	-1.223866	1.832029	0.021707	0.184804	-0.181341	-39.841339	-77.098466	-141.795575	39.979146380	116.338928494	47.199024
04767	6609624	9.468026	-1.252869	1.862484	0.016232	0.189227	-0.182399	-39.675971	-77.095156	-141.962862	39.979146378	116.338928497	47.198789
04768	6609649	9.521603	-1.342394	1.874173	0.006630	0.206453	-0.180851	-39.505963	-77.089695	-142.136324	39.979146376	116.338928500	47.198554
04769	6609674	9.606893	-1.424965	1.885894	0.000836	0.206618	-0.183222	-39.335718	-77.084315	-142.310882	39.979146374	116.338928502	47.203408
04770	6609699	9.655078	-1.473089	1.877808	0.002187	0.220354	-0.196989	-39.153345	-77.078539	-142.497690	39.979146373	116.338928505	47.203180
04771	6609724	9.692394	-1.466068	1.832633	0.009049	0.226799	-0.197822	-38.967222	-77.071988	-142.687342	39.979146371	116.338928508	47.202952
04772	6609749	9.780410	-1.554165	1.847078	0.036943	0.240493	-0.216472	-38.762879	-77.065440	-142.891594	39.979146369	116.338928511	47.202725
04773	6609774	9.769387	-1.536373	1.864407	0.070897	0.272201	-0.233653	-38.533190	-77.056710	-143.116868	39.979146367	116.338928514	47.202502
04774	6609799	9.770699	-1.540582	1.882993	0.104974	0.286879	-0.233208	-38.293484	-77.046086	-143.347420	39.979146365	116.338928517	47.202279
04775	6609824	9.784225	-1.641224	1.923888	0.148018	0.298686	-0.228913	-38.045578	-77.033532	-143.580070	39.979146364	116.338928520	47.202058
04776	6609849	9.625713	-1.635819	1.951735	0.163773	0.309904	-0.219560	-37.796204	-77.018661	-143.811925	39.979146362	116.338928522	47.201838
04777	6609874	9.693887	-1.903245	2.087813	0.180300	0.309350	-0.209360	-37.550242	-77.002736	-144.037861	39.979146360	116.338928525	47.202468
04778	6609899	9.674367	-2.023055	2.115315	0.199138	0.290494	-0.217125	-37.305420	-76.989413	-144.259872	39.979146359	116.338928528	47.202252
04779	6609924	9.498164	-1.966524	2.086078	0.175732	0.253178	-0.216027	-37.078906	-76.980049	-144.466544	39.979146357	116.338928531	47.202038
04780	6609949	8.691724	-1.499484	1.936741	0.046267	0.166030	-0.180283	-36.921335	-76.977416	-144.621492	39.979146355	116.338928534	47.201821
04781	6609974	8.773059	-1.581882	1.881910	-0.195895	0.043552	-0.121467	-36.873146	-76.983693	-144.699773	39.979146354	116.338928537	47.201587
04782	6609999	8.771997	-1.601979	1.755420	-0.470081	-0.124745	-0.083053	-36.945876	-77.005944	-144.694255	39.979146352	116.338928540	47.201361
04783	6610024	8.779717	-1.516989	1.472447	-0.769451	-0.302385	-0.083379	-37.128085	-77.048532	-144.620397	39.979146350	116.338928543	47.201130
04784	6610049	8.784794	-1.221621	1.248692	-1.035864	-0.457071	-0.065289	-37.416980	-77.107114	-144.476248	39.979146349	116.338928546	47.200895
04785	6610074	8.766200	-1.043636	1.096332	-1.310175	-0.621474	-0.048767	-37.818682	-77.182709	-144.256730	39.979146347	116.338928549	47.208870
04786	6610099	8.830711	-0.782299	0.771578	-1.566384	-0.750591	-0.018111	-38.326677	-77.269767	-143.965926	39.979146346	116.338928552	47.208632
04787	6610124	8.956519	-0.785825	0.597603	-1.753034	-0.836582	0.034192	-38.927365	-77.361144	-143.607617	39.979146344	116.338928555	47.208388
04788	6610149	9.190758	-1.019241	0.461436	-1.878353	-0.895531	0.093497	-39.606537	-77.452797	-143.187411	39.979146343	116.338928558	47.208139
04789	6610174	9.355809	-1.329981	0.396655	-1.936888	-0.934648	0.137551	-40.340299	-77.543554	-142.720026	39.979146341	116.338928560	47.207893
04790	6610199	9.443720	-1.591239	0.353332	-1.941651	-0.958636	0.164391	-41.106944	-77.633074	-142.219832	39.979146339	116.338928563	47.207639
04791	6610224	9.517616	-1.888501	0.376413	-1.886051	-0.969559	0.176221	-41.885293	-77.721186	-141.699675	39.979146338	116.338928566	47.207384
04792	6610249	9.486791	-2.180338	0.412632	-1.782681	-0.978896	0.176232	-42.662221	-77.808772	-141.165997	39.979146336	116.338928568	47.207127
04793	6610274	9.446166	-2.524633	0.487322	-1.639124	-0.970093	0.171510	-43.421526	-77.894374	-140.629484	39.979146335	116.338928571	47.209699
04794	6610299	9.451084	-2.801504	0.568783	-1.474863	-0.960682	0.154942	-44.153913	-77.979168	-140.096609	39.979146333	116.338928573	47.209444
04795	6610324	9.503005	-2.940742	0.644213	-1.279762	-0.949497	0.143963	-44.856505	-78.062520	-139.565790	39.979146332	116.338928575	47.209189
04796	6610349	9.494416	-3.137636	0.670145	-1.095461	-0.930603	0.130923	-45.525738	-78.143966	-139.042245	39.979146331	116.338928577	47.208934
04797	6610374	9.481899	-3.229824	0.657934	-0.892294	-0.907141	0.123018	-46.158528	-78.222651	-138.526355	39.979146330	116.338928580	47.208681
04798	6610399	9.480325	-3.385253	0.648112	-0.684919	-0.870066	0.114620	-46.746513	-78.297419	-138.026032	39.979146329	116.338928582	47.208426
04799	6610424	9.463601	-3.595603	0.610196	-0.467467	-0.829713	0.089948	-47.277894	-78.369833	-137.551835	39.979146328	116.338928584	47.208172
04802	6610449	9.436258	-3.648827	0.497007	-0.251930	-0.752060	0.057563	-47.729053	-78.437329	-137.128133	39.979146327	116.338928586	47.207919
04803	6610474	9.404817	-3.636079	0.397321	-0.029723	-0.659633	0.017416	-48.081745	-78.497972	-136.782388	39.979146719	116.338928095	47.211126
04804	6610499	9.427237	-3.495468	0.330022	0.182013	-0.541197	-0.023262	-48.330376	-78.552920	-136.502103	39.979146718	116.338928097	47.210884
04805	6610524	9.497948	-3.268270	0.289620	0.378686	-0.400388	-0.062321	-48.459958	-78.598474	-136.314584	39.979146718	116.338928098	47.210643
04806	6610549	9.524444	-3.008307	0.305132	0.549272	-0.249334	-0.097448	-48.469035	-78.633402	-136.225089	39.979146718	116.338928100	47.210401
04807	6610574	9.545369	-2.692137	0.388631	0.682701	-0.091031	-0.118342	-48.364729	-78.655535	-136.231757	39.979146717	116.338928102	47.210160
04808	6610599	9.497236	-2.414661	0.513128	0.787735	0.055936	-0.135879	-48.158405	-78.665523	-136.327128	39.979146717	116.338928103	47.209919
04809	6610624	9.443301	-2.160975	0.737312	0.858960	0.187765	-0.147562	-47.866025	-78.664041	-136.499861	39.979146717	116.338928105	47.209677
04810	6610649	9.375347	-1.962582	1.031755	0.891421	0.294736	-0.150104	-47.511427	-78.652322	-136.731312	39.979146717	116.338928106	47.209434
04811	6610674	9.300500	-1.777901	1.324832	0.902347	0.375818	-0.147514	-47.114728	-78.632158	-137.004122	39.979146717	116.338928107	47.211092
04812	6610699	9.162196	-1.587813	1.641866	0.877576	0.431293	-0.142480	-46.696481	-78.605657	-137.302554	39.979146717	116.338928109	47.210848
04813	6610724	9.065276	-1.441638	1.924115	0.823637	0.464150	-0.134513	-46.274669	-78.574657	-137.612535	39.979146717	116.338928110	47.210601
04814	6610749	8.932511	-1.344851	2.178353	0.753334	0.474115	-0.119554	-45.867196	-78.540680	-137.918196	39.979146717	116.338928112	47.210351
04815	6610774	8.846671	-1.223238	2.410081	0.670305	0.463604	-0.105365	-45.485999	-78.505885	-138.209217	39.979146717	116.338928114	47.210094
04816	6610799	8.734915	-1.061449	2.571443	0.584175	0.444987	-0.090499	-45.135780	-78.471082	-138.481252	39.979146717	116.338928115	47.209836
04817	6610824	8.682136	-0.987979	2.785716	0.496087	0.406695	-0.076954	-44.825663	-78.438476	-138.725267	39.979146717	116.338928117	47.209573
04818	6610849	8.648641	-0.988601	2.957229	0.409430	0.354303	-0.056596	-44.565300	-78.408910	-138.931192	39.979146717	116.338928119	47.209306
04819	6610874	8.602890	-1.001353	3.064855	0.328879	0.284958	-0.044726	-44.357343	-78.385075	-139.095418	39.979146716	116.338928121	47.206821
04820	6610899	8.573905	-0.989094	3.094107	0.249295	0.212581	-0.036052	-44.200954	-78.367689	-139.218645	39.979146716	116.338928123	47.206541
04821	6610924	8.553108	-1.031781	3.116594	0.171870	0.141846	-0.023776	-44.096392	-78.356292	-139.300287	39.979146716	116.338928126	47.206256
04822	6610949	8.569788	-1.021999	3.064768	0.088310	0.068858	-0.014627	-44.043781	-78.351473	-139.341109	39.979146716	116.338928128	47.205966
04823	6610974	8.603004	-1.042359	2.988920	0.014541	-0.000884	0.004911	-44.045206	-78.351885	-139.337547	39.979146716	116.338928131	47.205672
04824	6610999	8.640392	-1.084604	2.889100	-0.048016	-0.062697	0.016670	-44.091343	-78.357487	-139.297484	39.979146716	116.338928133	47.205372
04825	6611024	8.663986	-1.164028	2.774458	-0.100486	-0.118172	0.033531	-44.180336	-78.367101	-139.221339	39.979146715	116.338928136	47.205067
04826	6611049	8.723456	-1.263908	2.622572	-0.142020	-0.163354	0.044492	-44.302853	-78.380227	-139.117045	39.979146715	116.338928139	47.204758
04827	6611074	8.733423	-1.351265	2.438798	-0.173497	-0.208801	0.051765	-44.455951	-78.397227	-138.986139	39.979146715	116.338928142	47.206480
04828	6611099	8.784659	-1.442884	2.282938	-0.207445	-0.237688	0.054979	-44.630103	-78.416778	-138.838714	39.979146715	116.338928145	47.206164
04829	6611124	8.856644	-1.493128	2.117943	-0.236195	-0.258046	0.052387	-44.817671	-78.438568	-138.681809	39.979146715	116.338928148	47.205844
04830	6611149	8.910796	-1.506306	1.941084	-0.248703	-0.272195	0.055069	-45.016028	-78.461416	-138.515734	39.979146714	116.338928151	47.205521
04831	6611174	8.947066	-1.560539	1.730805	-0.255445	-0.267869	0.063501	-45.218089	-78.482855	-138.346876	39.979146714	116.338928155	47.205195
04832	6611199	8.987411	-1.577784	1.559265	-0.264433	-0.254849	0.063984	-45.415834	-78.502815	-138.183749	39.979146714	116.338928158	47.204864
04833	6611224	9.067603	-1.641894	1.410161	-0.265628	-0.233918	0.063899	-45.603785	-78.520574	-138.030803	39.979146714	116.338928161	47.204530
04834	6611249	9.147794	-1.699152	1.269074	-0.261058	-0.202128	0.069198	-45.778127	-78.534511	-137.891084	39.979146714	116.338928164	47.204194
04835	6611274	9.222439	-1.726244	1.149355	-0.248192	-0.168216	0.069210	-45.933784	-78.544985	-137.768554	39.979146714	116.338928168	47.205912
04836	6611299	9.303871	-1.780977	1.064122	-0.227435	-0.125572	0.060223	-46.060585	-78.552081	-137.672437	39.979146714	116.338928171	47.205573
04837	6611324	9.335771	-1.813643	0.961602	-0.214793	-0.084907	0.062053	-46.165853	-78.554911	-137.596445	39.979146714	116.338928174	47.205233
04838	6611349	9.395111	-1.846442	0.905707	-0.197244	-0.043803	0.059895	-46.246589	-78.553865	-137.542918	39.979146714	116.338928177	47.204891
04839	6611374	9.409020	-1.829777	0.864517	-0.178070	0.000075	0.052904	-46.298712	-78.549187	-137.515781	39.979146714	116.338928181	47.204548
04840	6611399	9.451806	-1.829673	0.836621	-0.164704	0.046884	0.046560	-46.321868	-78.540530	-137.516247	39.979146714	116.338928184	47.204204
04841	6611424	9.450472	-1.799395	0.838041	-0.148970	0.086838	0.044009	-46.321111	-78.528185	-137.538813	39.979146714	116.338928187	47.203858
04842	6611449	9.467034	-1.760939	0.848809	-0.127393	0.129221	0.046787	-46.297043	-78.511358	-137.582013	39.979146714	116.338928190	47.203512
04843	6611474	9.502716	-1.777629	0.903274	-0.114739	0.160050	0.044160	-46.254314	-78.491746	-137.642410	39.979146714	116.338928193	47.203158
04844	6611499	9.537064	-1.728375	0.964638	-0.106716	0.186011	0.045839	-46.198271	-78.469377	-137.715226	39.979146714	116.338928196	47.202811
04845	6611524	9.549325	-1.697002	1.041876	-0.090688	0.206281	0.045384	-46.129724	-78.445028	-137.798466	39.979146714	116.338928199	47.202462
04846	6611549	9.524390	-1.666986	1.112427	-0.096792	0.223312	0.047207	-46.054682	-78.418779	-137.889237	39.979146714	116.338928202	47.202114
04847	6611574	9.517296	-1.641243	1.217518	-0.096132	0.229773	0.046769	-45.976468	-78.391908	-137.983157	39.979146714	116.338928205	47.201765
04848	6611599	9.468727	-1.634918	1.359791	-0.106986	0.223972	0.048004	-45.903700	-78.365462	-138.073114	39.979146714	116.338928208	47.201415
04849	6611624	9.446488	-1.600855	1.459640	-0.121078	0.213304	0.053938	-45.841497	-78.339449	-138.154353	39.979146715	116.338928211	47.201065
04850	6611649	9.426915	-1.555986	1.598076	-0.134385	0.195523	0.063279	-45.794854	-78.314236	-138.221658	39.979146715	116.338928214	47.200714
04851	6611674	9.351038	-1.501185	1.664696	-0.152224	0.171617	0.058125	-45.760355	-78.291931	-138.279174	39.979146715	116.338928217	47.205663
04852	6611699	9.334415	-1.432671	1.744699	-0.166744	0.152183	0.071169	-45.743992	-78.270224	-138.320300	39.979146715	116.338928220	47.205315
04853	6611724	9.341146	-1.364278	1.844678	-0.173274	0.121534	0.069320	-45.742892	-78.251770	-138.346793	39.979146715	116.338928223	47.204966
04854	6611749	9.372802	-1.280585	1.911432	-0.188272	0.093433	0.083439	-45.764599	-78.234676	-138.352187	39.979146716	116.338928226	47.204616
04855	6611774	9.379569	-1.223081	1.994110	-0.191392	0.063653	0.088911	-45.804009	-78.219996	-138.339955	39.979146716	116.338928229	47.204265
04856	6611799	9.391905	-1.173795	2.055419	-0.204057	0.028580	0.095506	-45.865583	-78.208137	-138.306934	39.979146716	116.338928233	47.203913
04857	6611824	9.354657	-1.154602	2.084717	-0.214517	-0.008518	0.110734	-45.954091	-78.198399	-138.247927	39.979146716	116.338928236	47.203560
04858	6611849	9.368438	-1.110677	2.103514	-0.224882	-0.041507	0.116780	-46.063106	-78.191299	-138.169485	39.979146716	116.338928239	47.203206
04859	6611874	9.347861	-1.078907	2.083678	-0.239757	-0.068653	0.111589	-46.185084	-78.187398	-138.079973	39.979146716	116.338928243	47.206006
04860	6611899	9.349350	-1.032095	2.066558	-0.252977	-0.087933	0.122443	-46.323566	-78.184242	-137.975536	39.979146716	116.338928246	47.205653
04861	6611924	9.371480	-0.996252	2.057370	-0.273354	-0.115310	0.125892	-46.480112	-78.183377	-137.855624	39.979146717	116.338928249	47.205299
04862	6611949	9.371442	-1.015539	2.062635	-0.288266	-0.130275	0.133017	-46.649570	-78.183175	-137.724703	39.979146717	116.338928253	47.204943
04863	6611974	9.359165	-1.001627	2.020109	-0.313269	-0.142783	0.130063	-46.827463	-78.184428	-137.588823	39.979146717	116.338928256	47.204586
04864	6611999	9.324820	-0.983615	1.986924	-0.329736	-0.149077	0.135848	-47.013600	-78.185603	-137.446931	39.979146717	116.338928260	47.204228
04865	6612024	9.316595	-1.022003	1.946902	-0.352769	-0.152789	0.135919	-47.204966	-78.187037	-137.303068	39.979146717	116.338928264	47.203868
04866	6612049	9.298642	-1.076946	1.926775	-0.377265	-0.152704	0.135411	-47.399601	-78.188416	-137.159451	39.979146717	116.338928267	47.203507
04867	6612074	9.280706	-1.089338	1.932048	-0.401844	-0.150763	0.135966	-47.597069	-78.189449	-137.016536	39.979146716	116.338928271	47.208416
04868	6612099	9.306846	-1.137441	1.917289	-0.416546	-0.143474	0.130311	-47.790371	-78.190278	-136.880031	39.979146716	116.338928275	47.208057
04869	6612124	9.309554	-1.171844	1.919808	-0.433627	-0.139999	0.128102	-47.983360	-78.190914	-136.746344	39.979146716	116.338928279	47.207696
04870	6612149	9.346722	-1.192499	1.922441	-0.445549	-0.137526	0.119014	-48.172656	-78.192191	-136.618177	39.979146716	116.338928282	47.207333
04871	6612174	9.308095	-1.218652	1.918329	-0.457150	-0.128622	0.115706	-48.357583	-78.192886	-136.496170	39.979146716	116.338928286	47.206970
04872	6612199	9.321851	-1.211808	1.938330	-0.452624	-0.124989	0.117378	-48.540772	-78.192977	-136.375277	39.979146716	116.338928290	47.206605
04873	6612224	9.374134	-1.243534	1.948896	-0.457393	-0.121762	0.107968	-48.718728	-78.193696	-136.260429	39.979146716	116.338928294	47.206238
04874	6612249	9.400293	-1.233965	1.963563	-0.459878	-0.115150	0.104736	-48.892186	-78.194067	-136.150538	39.979146715	116.338928298	47.205871
04875	6612274	9.431848	-1.263028	2.002032	-0.452830	-0.116248	0.095931	-49.061255	-78.195426	-136.044101	39.979146715	116.338928302	47.208617
04876	6612299	9.467537	-1.293424	2.037884	-0.455195	-0.119095	0.088055	-49.228643	-78.197841	-135.939728	39.979146715	116.338928307	47.208251
04877	6612324	9.497836	-1.305831	2.040483	-0.449957	-0.118822	0.085519	-49.394061	-78.200444	-135.836602	39.979146715	116.338928311	47.207886
04878	6612349	9.548751	-1.296314	2.073786	-0.451520	-0.125735	0.081304	-49.561491	-78.204088	-135.731650	39.979146714	116.338928315	47.207520
04879	6612374	9.570710	-1.308806	2.100367	-0.453731	-0.131746	0.077836	-49.730928	-78.208605	-135.624974	39.979146714	116.338928319	47.207156
04880	6612399	9.623022	-1.329509	2.108306	-0.451866	-0.138311	0.075653	-49.902682	-78.213903	-135.515659	39.979146714	116.338928324	47.206791
04881	6612424	9.618769	-1.357132	2.140107	-0.448947	-0.143240	0.073041	-50.075586	-78.219874	-135.404745	39.979146713	116.338928328	47.206426
04882	6612449	9.633770	-1.382088	2.185299	-0.454405	-0.152032	0.070050	-50.252742	-78.226912	-135.290289	39.979146713	116.338928333	47.206062
04883	6612474	9.644739	-1.391808	2.206513	-0.456679	-0.152925	0.069280	-50.430530	-78.234043	-135.175521	39.979146713	116.338928337	47.210951
04884	6612499	9.644749	-1.393182	2.207824	-0.453888	-0.168686	0.067681	-50.615776	-78.242713	-135.052732	39.979146712	116.338928342	47.210595
04885	6612524	9.663940	-1.396072	2.239757	-0.464793	-0.177257	0.065903	-50.806608	-78.252275	-134.925837	39.979146712	116.338928346	47.210239
04886	6612549	9.669451	-1.375469	2.251790	-0.469765	-0.186361	0.067258	-51.003872	-78.262421	-134.793103	39.979146712	116.338928351	47.209885
04887	6612574	9.663974	-1.368546	2.245162	-0.462687	-0.196730	0.066064	-51.205462	-78.273538	-134.654922	39.979146711	116.338928356	47.209532
04888	6612599	9.686086	-1.317676	2.249337	-0.474991	-0.207593	0.059624	-51.412221	-78.286249	-134.513268	39.979146711	116.338928361	47.209180
04889	6612624	9.681892	-1.327341	2.269248	-0.479265	-0.215311	0.056455	-51.622787	-78.299897	-134.368356	39.979146710	116.338928366	47.208829
04890	6612649	9.675057	-1.273710	2.277416	-0.478043	-0.224929	0.053956	-51.837755	-78.314571	-134.218780	39.979146710	116.338928371	47.208479
04891	6612674	9.662704	-1.242068	2.274828	-0.471607	-0.232160	0.050429	-52.054701	-78.330166	-134.066249	39.979146709	116.338928376	47.207995
04892	6612699	9.655940	-1.152635	2.277780	-0.470990	-0.243555	0.047798	-52.277188	-78.346942	-133.907980	39.979146709	116.338928381	47.207646
04893	6612724	9.675273	-1.119609	2.276581	-0.457892	-0.253682	0.046028	-52.503177	-78.364679	-133.744229	39.979146708	116.338928386	47.207299
04894	6612749	9.672546	-1.109936	2.276616	-0.455709	-0.268793	0.041212	-52.735786	-78.384145	-133.573412	39.979146708	116.338928392	47.206952
04895	6612774	9.646454	-1.085109	2.251425	-0.442167	-0.274895	0.033151	-52.967132	-78.404920	-133.401916	39.979146707	116.338928397	47.206606
04896	6612799	9.657567	-1.009447	2.263612	-0.434314	-0.281507	0.032966	-53.201693	-78.426145	-133.226002	39.979146706	116.338928402	47.206261
04897	6612824	9.621785	-0.983292	2.255732	-0.420280	-0.294095	0.032206	-53.441756	-78.448388	-133.042435	39.979146706	116.338928408	47.205916
04898	6612849	9.609465	-0.962555	2.235850	-0.413458	-0.303811	0.024217	-53.683822	-78.472222	-132.855840	39.979146705	116.338928414	47.205571
04899	6612874	9.630161	-0.951574	2.231897	-0.412166	-0.311296	0.020026	-53.929101	-78.497016	-132.665794	39.979146704	116.338928419	47.208387
04900	6612899	9.646702	-0.932308	2.241290	-0.410993	-0.320689	0.019728	-54.180394	-78.522469	-132.469456	39.979146703	116.338928425	47.208047
04901	6612924	9.639964	-0.882646	2.209537	-0.408001	-0.326833	0.016424	-54.434418	-78.548647	-132.269913	39.979146702	116.338928431	47.207707
04903	6612949	9.606886	-0.874434	2.216201	-0.409730	-0.331651	0.012447	-54.690877	-78.575513	-132.068158	39.979146702	116.338928437	47.207367
04905	6612974	9.627730	-0.845352	2.165782	-0.412987	-0.335811	0.009723	-54.918777	-78.602051	-131.834168	39.979147470	116.338927491	47.226589
04906	6612999	9.629090	-0.832970	2.179117	-0.404583	-0.339370	0.005956	-55.178439	-78.629972	-131.628431	39.979147470	116.338927496	47.226307
04907	6613024	9.579600	-0.794367	2.152647	-0.403456	-0.335851	0.004138	-55.436271	-78.657636	-131.424415	39.979147469	116.338927502	47.226026
04908	6613049	9.600182	-0.816478	2.173831	-0.394996	-0.332852	-0.002013	-55.689753	-78.685605	-131.223619	39.979147468	116.338927508	47.225744
04909	6613074	9.585095	-0.784765	2.164657	-0.386305	-0.328985	-0.009431	-55.937824	-78.713968	-131.027092	39.979147467	116.338927513	47.225111
04910	6613099	9.607069	-0.784882	2.195231	-0.371559	-0.319299	-0.009382	-56.179124	-78.741386	-130.835334	39.979147466	116.338927519	47.224829
04911	6613124	9.636001	-0.793128	2.189899	-0.366379	-0.314742	-0.017647	-56.414692	-78.769271	-130.648682	39.979147465	116.338927525	47.224546
04912	6613149	9.616633	-0.782285	2.227189	-0.358242	-0.306907	-0.022750	-56.643376	-78.796998	-130.467878	39.979147464	116.338927531	47.224264
04913	6613174	9.682780	-0.750714	2.243279	-0.344099	-0.295509	-0.023209	-56.863941	-78.823748	-130.293303	39.979147463	116.338927537	47.223982
04914	6613199	9.747437	-0.787925	2.263147	-0.331613	-0.294097	-0.029206	-57.080425	-78.850978	-130.121081	39.979147462	116.338927543	47.223701
04915	6613224	9.739060	-0.811468	2.296304	-0.316377	-0.281224	-0.032243	-57.286583	-78.877451	-129.957173	39.979147461	116.338927549	47.223420
04916	6613249	9.807957	-0.783997	2.308437	-0.309622	-0.269216	-0.034586	-57.484336	-78.903168	-129.800860	39.979147459	116.338927555	47.223140
04917	6613274	9.887701	-0.830969	2.357480	-0.304738	-0.254329	-0.035372	-57.672691	-78.927735	-129.653425	39.979147458	116.338927562	47.225495
04918	6613299	9.913770	-0.818780	2.404113	-0.299272	-0.240193	-0.043514	-57.849047	-78.952119	-129.517430	39.979147457	116.338927568	47.225221
04919	6613324	9.985382	-0.777634	2.442883	-0.296193	-0.221096	-0.047085	-58.012350	-78.975405	-129.394296	39.979147455	116.338927575	47.224949
04920	6613349	10.034806	-0.782049	2.516036	-0.295658	-0.207053	-0.053698	-58.164819	-78.998368	-129.282130	39.979147454	116.338927581	47.224680
04921	6613374	10.089831	-0.757507	2.565355	-0.297716	-0.193593	-0.053278	-58.309842	-79.020208	-129.177859	39.979147452	116.338927588	47.224415
04922	6613399	10.150259	-0.775686	2.635784	-0.301377	-0.174654	-0.051308	-58.444711	-79.040338	-129.084472	39.979147451	116.338927595	47.224152
04923	6613424	10.216290	-0.779976	2.681015	-0.304383	-0.158964	-0.046183	-58.572490	-79.058627	-128.998751	39.979147449	116.338927602	47.223892
04924	6613449	10.271283	-0.788406	2.720971	-0.313149	-0.139268	-0.052997	-58.686765	-79.076246	-128.928068	39.979147447	116.338927609	47.223637
04925	6613474	10.306883	-0.836816	2.782007	-0.322831	-0.112450	-0.042592	-58.789690	-79.090572	-128.870361	39.979147446	116.338927616	47.223085
04926	6613499	10.297013	-0.875617	2.857613	-0.331995	-0.095443	-0.042552	-58.883321	-79.103613	-128.823457	39.979147444	116.338927624	47.222838
04927	6613524	10.292582	-0.944731	2.933222	-0.343037	-0.074640	-0.039639	-58.966545	-79.114746	-128.788764	39.979147442	116.338927631	47.222596
04928	6613549	10.260612	-1.004138	3.010133	-0.354874	-0.052403	-0.037929	-59.038027	-79.124019	-128.767756	39.979147440	116.338927639	47.222358
04929	6613574	10.241092	-1.062180	3.072432	-0.371100	-0.030185	-0.029778	-59.100818	-79.130651	-128.757965	39.979147438	116.338927646	47.222125
04930	6613599	10.276624	-1.117563	3.157408	-0.393823	-0.008146	-0.025886	-59.154279	-79.135182	-128.760988	39.979147436	116.338927654	47.221896
04931	6613624	10.283172	-1.204584	3.243536	-0.409551	0.010835	-0.025457	-59.198010	-79.138268	-128.776213	39.979147434	116.338927662	47.221673
04932	6613649	10.284221	-1.257220	3.345757	-0.421178	0.018929	-0.019960	-59.240323	-79.140086	-128.794578	39.979147431	116.338927670	47.221454
04933	6613674	10.252272	-1.318064	3.413362	-0.428039	0.028963	-0.023736	-59.275743	-79.141636	-128.820963	39.979147429	116.338927679	47.220991
04934	6613699	10.267159	-1.409077	3.472883	-0.434101	0.037287	-0.019197	-59.308418	-79.142022	-128.851025	39.979147427	116.338927687	47.220782
04935	6613724	10.235343	-1.468290	3.483344	-0.427780	0.041828	-0.020222	-59.336882	-79.142205	-128.884454	39.979147425	116.338927696	47.220579
04936	6613749	10.202199	-1.501383	3.500462	-0.403264	0.040653	-0.012043	-59.365704	-79.141469	-128.913943	39.979147422	116.338927705	47.220381
04937	6613774	10.120924	-1.543848	3.464391	-0.397906	0.044781	-0.014777	-59.390065	-79.140772	-128.947192	39.979147420	116.338927714	47.220187
04938	6613799	10.045082	-1.605734	3.452149	-0.379020	0.049891	-0.006649	-59.411530	-79.138702	-128.980636	39.979147418	116.338927723	47.219998
04939	6613824	10.014719	-1.663449	3.433358	-0.364642	0.051405	-0.005785	-59.430294	-79.136418	-129.014734	39.979147415	116.338927732	47.219813
04940	6613849	9.978821	-1.693761	3.445187	-0.343367	0.046499	-0.005366	-59.449325	-79.134442	-129.045457	39.979147413	116.338927742	47.219632
04941	6613874	9.907295	-1.707288	3.390563	-0.320415	0.043227	-0.005497	-59.467122	-79.132721	-129.074089	39.979147410	116.338927752	47.221210
04942	6613899	9.808091	-1.766295	3.351757	-0.302394	0.040136	-0.010391	-59.482471	-79.131831	-129.102584	39.979147408	116.338927762	47.221037
04943	6613924	9.732471	-1.808620	3.265084	-0.290680	0.034973	-0.014697	-59.497830	-79.131849	-129.129362	39.979147406	116.338927772	47.220867
04944	6613949	9.660942	-1.785032	3.223931	-0.277227	0.023022	-0.015152	-59.518773	-79.132794	-129.148492	39.979147403	116.338927782	47.220698
04945	6613974	9.560623	-1.699521	3.166949	-0.254662	0.015736	-0.016418	-59.540689	-79.134426	-129.163339	39.979147401	116.338927792	47.220529
04946	6613999	9.469937	-1.638671	3.093981	-0.233100	0.009580	-0.014552	-59.564184	-79.136275	-129.173434	39.979147398	116.338927803	47.220363
04947	6614024	9.368137	-1.632926	3.034052	-0.198458	-0.002858	-0.008045	-59.593185	-79.138223	-129.172869	39.979147396	116.338927814	47.220196
04948	6614049	9.273208	-1.594213	2.994240	-0.158282	-0.021046	-0.011747	-59.626754	-79.141946	-129.161793	39.979147393	116.338927825	47.220030
04949	6614074	9.161844	-1.567735	2.914463	-0.116862	-0.036342	-0.012545	-59.663962	-79.146875	-129.140971	39.979147391	116.338927836	47.215700
04950	6614099	9.076720	-1.499997	2.832181	-0.073047	-0.061969	-0.012934	-59.711314	-79.153701	-129.103432	39.979147388	116.338927847	47.215526
04951	6614124	8.957092	-1.467994	2.748441	-0.040507	-0.083411	-0.018013	-59.766001	-79.162697	-129.053678	39.979147385	116.338927858	47.215350
04952	6614149	8.920291	-1.371247	2.639685	-0.007024	-0.111887	-0.022879	-59.832581	-79.174337	-128.986934	39.979147383	116.338927870	47.215170
04953	6614174	8.873821	-1.293774	2.532189	0.025469	-0.136551	-0.031853	-59.907276	-79.188847	-128.907194	39.979147380	116.338927881	47.214983
04954	6614199	8.804069	-1.147478	2.412935	0.047214	-0.161463	-0.036946	-59.993353	-79.205754	-128.812698	39.979147378	116.338927893	47.214795
04955	6614224	8.774153	-0.990287	2.340317	0.075263	-0.187799	-0.035571	-60.093388	-79.224346	-128.699910	39.979147375	116.338927905	47.214602
04956	6614249	8.751238	-0.842624	2.217134	0.104755	-0.213175	-0.033431	-60.206967	-79.244441	-128.569042	39.979147372	116.338927916	47.214404
04957	6614274	8.772392	-0.722461	2.097831	0.141841	-0.235802	-0.021614	-60.334957	-79.264622	-128.418109	39.979147369	116.338927928	47.210162
04958	6614299	8.774033	-0.676711	2.016844	0.164624	-0.254446	-0.019592	-60.473239	-79.285805	-128.253387	39.979147367	116.338927941	47.209949
04959	6614324	8.799258	-0.604679	1.889445	0.182855	-0.279592	-0.028232	-60.622917	-79.309760	-128.074424	39.979147364	116.338927953	47.209731
04960	6614349	8.798396	-0.474868	1.754235	0.189652	-0.296551	-0.037158	-60.780301	-79.335929	-127.886643	39.979147361	116.338927965	47.209507
04961	6614374	8.815339	-0.380859	1.642871	0.190018	-0.305164	-0.040476	-60.942992	-79.363016	-127.693425	39.979147358	116.338927977	47.209276
04962	6614399	8.870828	-0.258114	1.562206	0.181153	-0.308126	-0.036140	-61.111444	-79.389663	-127.495654	39.979147355	116.338927989	47.209041
04963	6614424	8.869847	-0.140814	1.474809	0.162594	-0.308041	-0.032198	-61.284869	-79.415700	-127.295545	39.979147352	116.338928002	47.208800
04964	6614449	8.908673	-0.112980	1.387196	0.126028	-0.300886	-0.028028	-61.461155	-79.440609	-127.097871	39.979147348	116.338928014	47.208553
04965	6614474	8.972248	-0.122329	1.308714	0.087827	-0.294153	-0.022547	-61.641243	-79.464255	-126.901912	39.979147345	116.338928026	47.208355
04966	6614499	9.021900	-0.171670	1.254067	0.032248	-0.280957	-0.019032	-61.822441	-79.486450	-126.712934	39.979147342	116.338928039	47.208098
04967	6614524	9.037005	-0.185474	1.267341	-0.025113	-0.265676	-0.028110	-61.998912	-79.508653	-126.537135	39.979147338	116.338928051	47.207835
04968	6614549	9.136122	-0.210371	1.292553	-0.095670	-0.252278	-0.033139	-62.175239	-79.530496	-126.371773	39.979147335	116.338928064	47.207569
04969	6614574	9.101511	-0.231201	1.343017	-0.164968	-0.235829	-0.033195	-62.350878	-79.551156	-126.217214	39.979147331	116.338928076	47.207299
04970	6614599	9.139906	-0.275424	1.394748	-0.224814	-0.232199	-0.029393	-62.534605	-79.571006	-126.063160	39.979147328	116.338928089	47.207023
04971	6614624	9.168374	-0.431318	1.492659	-0.280468	-0.221027	-0.017580	-62.723434	-79.588526	-125.912032	39.979147324	116.338928101	47.206744
04972	6614649	9.214825	-0.577450	1.568002	-0.323637	-0.213625	-0.014275	-62.915051	-79.605050	-125.764364	39.979147320	116.338928114	47.206461
04973	6614674	9.178513	-0.726463	1.672542	-0.351478	-0.198746	-0.014068	-63.100898	-79.620492	-125.626626	39.979147316	116.338928127	47.203297
04974	6614699	9.175402	-0.832707	1.755976	-0.365408	-0.195612	-0.005502	-63.290042	-79.634555	-125.487569	39.979147312	116.338928139	47.203005
04975	6614724	9.137822	-0.936234	1.850028	-0.373797	-0.190724	-0.005825	-63.477291	-79.648263	-125.351668	39.979147308	116.338928152	47.202710
04976	6614749	9.155287	-1.074225	1.945320	-0.361918	-0.191170	-0.005102	-63.663827	-79.661828	-125.214766	39.979147304	116.338928165	47.202411
04977	6614774	9.135661	-1.165334	2.031466	-0.347915	-0.187163	-0.007197	-63.845224	-79.675329	-125.081056	39.979147300	116.338928178	47.202111
04978	6614799	9.135478	-1.199971	2.088510	-0.317453	-0.188565	-0.009093	-64.023004	-79.689087	-124.946593	39.979147296	116.338928191	47.201807
04979	6614824	9.100753	-1.271788	2.150777	-0.285594	-0.188328	0.000335	-64.199700	-79.701540	-124.808599	39.979147292	116.338928204	47.201500
04980	6614849	9.108746	-1.346310	2.223669	-0.245138	-0.191659	-0.002110	-64.372511	-79.714441	-124.668670	39.979147288	116.338928217	47.201190
04981	6614874	9.101615	-1.389271	2.295314	-0.209889	-0.197525	-0.001636	-64.545003	-79.727567	-124.523937	39.979147284	116.338928231	47.204102
04982	6614899	9.083716	-1.400223	2.284643	-0.165840	-0.203581	-0.003678	-64.715231	-79.741252	-124.375100	39.979147280	116.338928244	47.203790
04983	6614924	9.045079	-1.397560	2.307228	-0.136845	-0.207359	-0.003444	-64.884516	-79.755059	-124.223008	39.979147276	116.338928258	47.203475
04984	6614949	8.994195	-1.361688	2.283385	-0.108072	-0.208768	-0.001836	-65.051661	-79.768662	-124.068909	39.979147272	116.338928272	47.203156
04985	6614974	8.997135	-1.283178	2.259723	-0.096169	-0.203252	-0.001122	-65.213782	-79.781762	-123.918190	39.979147267	116.338928285	47.202833
04986	6614999	8.976499	-1.225415	2.278521	-0.080204	-0.196584	0.001194	-65.369959	-79.794087	-123.771191	39.979147263	116.338928299	47.202507
04987	6615024	8.949036	-1.177259	2.270670	-0.059912	-0.201944	0.004686	-65.528632	-79.806204	-123.618710	39.979147259	116.338928313	47.202177
04988	6615049	8.933833	-1.166327	2.298613	-0.053741	-0.203131	0.018319	-65.692128	-79.816537	-123.460436	39.979147255	116.338928327	47.201844
04989	6615074	8.885653	-1.156615	2.276032	-0.043367	-0.202690	0.023116	-65.855704	-79.826137	-123.300574	39.979147250	116.338928342	47.203722
04990	6615099	8.859656	-1.117899	2.229582	-0.037353	-0.208567	0.025177	-66.023683	-79.835730	-123.135369	39.979147246	116.338928356	47.203382
04991	6615124	8.863921	-1.114971	2.180392	-0.039628	-0.201581	0.025785	-66.187386	-79.844753	-122.974845	39.979147242	116.338928371	47.203037
04992	6615149	8.866810	-1.052950	2.156692	-0.034907	-0.192732	0.024177	-66.343694	-79.853397	-122.821150	39.979147237	116.338928385	47.202688
04993	6615174	8.888879	-0.985658	2.186218	-0.033131	-0.183298	0.027204	-66.494048	-79.861031	-122.673251	39.979147233	116.338928400	47.202334
04994	6615199	8.919254	-0.944372	2.191664	-0.016794	-0.175641	0.031291	-66.637948	-79.867625	-122.529532	39.979147228	116.338928415	47.201975
04995	6615224	8.938529	-0.899115	2.227700	-0.008363	-0.173056	0.035003	-66.780095	-79.873521	-122.386371	39.979147224	116.338928429	47.201612
04996	6615249	8.968773	-0.888251	2.262334	0.017488	-0.180560	0.039427	-66.925634	-79.879193	-122.236006	39.979147219	116.338928444	47.201244
04997	6615274	8.948167	-0.900483	2.231697	0.047572	-0.185637	0.045957	-67.072823	-79.884221	-122.079590	39.979147214	116.338928460	47.199093
04998	6615299	8.986926	-0.898853	2.154609	0.070399	-0.179304	0.043115	-67.211318	-79.889204	-121.928686	39.979147210	116.338928475	47.198715
04999	6615324	9.052934	-0.872983	2.225219	0.100520	-0.170468	0.050704	-67.341433	-79.892632	-121.781913	39.979147205	116.338928490	47.198333
05000	6615349	9.103691	-0.854114	2.330318	0.131042	-0.173855	0.051139	-67.469917	-79.896131	-121.632358	39.979147200	116.338928506	47.197948
05001	6615374	9.110530	-0.814390	2.376986	0.170365	-0.195277	0.059079	-67.611220	-79.899690	-121.464062	39.979147195	116.338928521	47.197561
05002	6615399	9.131355	-0.808671	2.317181	0.194843	-0.215946	0.069600	-67.767718	-79.902902	-121.276773	39.979147191	116.338928537	47.197169
05003	6615424	9.146803	-0.793112	2.204246	0.202689	-0.227609	0.074513	-67.933382	-79.905999	-121.079033	39.979147186	116.338928553	47.196774
05006	6615449	9.207737	-0.787166	2.085951	0.208645	-0.220062	0.074999	-68.092811	-79.908529	-120.886762	39.979147181	116.338928569	47.196376
05007	6615474	9.294819	-0.757921	1.987721	0.195722	-0.201537	0.070168	-68.163950	-79.915981	-120.396919	39.979148695	116.338927214	47.219899
05008	6615499	9.369303	-0.691920	1.991982	0.177483	-0.180504	0.070831	-68.297232	-79.916837	-120.235743	39.979148691	116.338927229	47.219568
05009	6615524	9.398346	-0.613526	2.000213	0.159173	-0.165148	0.073756	-68.422522	-79.916427	-120.085347	39.979148687	116.338927245	47.219235
05010	6615549	9.428717	-0.539311	2.020426	0.139910	-0.145920	0.076671	-68.537003	-79.914564	-119.948731	39.979148682	116.338927260	47.218900
05011	6615574	9.475574	-0.544792	2.016429	0.132649	-0.134106	0.089121	-68.647266	-79.910377	-119.817455	39.979148678	116.338927276	47.218564
05012	6615599	9.501720	-0.558564	2.019069	0.123794	-0.120920	0.095832	-68.750763	-79.904564	-119.694338	39.979148673	116.338927291	47.218226
05013	6615624	9.542981	-0.572404	2.042988	0.119823	-0.105901	0.098810	-68.844299	-79.897539	-119.581914	39.979148669	116.338927307	47.217887
05014	6615649	9.558146	-0.576524	2.036319	0.117458	-0.094585	0.104189	-68.931099	-79.889180	-119.476673	39.979148664	116.338927323	47.217546
05015	6615674	9.606308	-0.605488	2.053529	0.119771	-0.084488	0.105019	-69.010082	-79.880164	-119.379034	39.979148659	116.338927339	47.219802
05016	6615699	9.596619	-0.631639	2.050792	0.115897	-0.074321	0.109948	-69.083257	-79.869946	-119.287855	39.979148655	116.338927355	47.219462
05017	6615724	9.626894	-0.655032	2.053374	0.118391	-0.067466	0.118451	-69.153201	-79.858219	-119.199592	39.979148650	116.338927371	47.219122
05018	6615749	9.654418	-0.679805	2.054634	0.119044	-0.063956	0.119837	-69.220636	-79.846110	-119.113779	39.979148645	116.338927387	47.218781
05019	6615774	9.698634	-0.663158	2.012185	0.118014	-0.058401	0.122030	-69.284506	-79.833408	-119.031736	39.979148640	116.338927404	47.218441
05020	6615799	9.722112	-0.665830	1.989566	0.115456	-0.048202	0.125022	-69.341788	-79.819773	-118.956755	39.979148635	116.338927420	47.218099
05021	6615824	9.751052	-0.678167	1.981566	0.117807	-0.037755	0.123966	-69.390470	-79.805741	-118.890165	39.979148630	116.338927436	47.217758
05022	6615849	9.775902	-0.669871	1.970966	0.118490	-0.025584	0.131568	-69.431956	-79.790066	-118.830785	39.979148625	116.338927453	47.217417
05023	6615874	9.762117	-0.709693	1.949537	0.123353	-0.023137	0.134432	-69.471568	-79.773878	-118.772598	39.979148619	116.338927470	47.215902
05024	6615899	9.731932	-0.686136	1.904409	0.138776	-0.011787	0.135675	-69.500734	-79.756946	-118.722778	39.979148614	116.338927486	47.215561
05025	6615924	9.711371	-0.706545	1.853782	0.153485	-0.002818	0.130753	-69.519654	-79.740222	-118.681227	39.979148609	116.338927503	47.215220
05026	6615949	9.652168	-0.706492	1.832487	0.164844	0.011791	0.137870	-69.528000	-79.721808	-118.648765	39.979148603	116.338927520	47.214878
05027	6615974	9.587459	-0.721485	1.801812	0.184274	0.023885	0.134613	-69.523660	-79.703226	-118.626367	39.979148598	116.338927537	47.214534
05028	6615999	9.528204	-0.743478	1.793703	0.205097	0.036745	0.139606	-69.508202	-79.683330	-118.612236	39.979148592	116.338927554	47.214191
05029	6616024	9.486896	-0.747507	1.776380	0.218821	0.055687	0.135356	-69.475678	-79.663054	-118.613453	39.979148587	116.338927571	47.213846
05030	6616049	9.390385	-0.787396	1.770879	0.236870	0.070155	0.138122	-69.430781	-79.641680	-118.624620	39.979148581	116.338927588	47.213500
05031	6616074	9.304985	-0.781830	1.762879	0.258963	0.085378	0.140421	-69.372325	-79.619229	-118.646354	39.979148576	116.338927606	47.212061
05032	6616099	9.245702	-0.809338	1.765399	0.281541	0.103191	0.137998	-69.297142	-79.596197	-118.681808	39.979148570	116.338927623	47.211709
05033	6616124	9.191906	-0.857467	1.755898	0.310075	0.116721	0.133933	-69.207149	-79.573014	-118.728167	39.979148564	116.338927640	47.211354
05034	6616149	9.084361	-0.890500	1.762377	0.327130	0.124806	0.133806	-69.109114	-79.549423	-118.780222	39.979148558	116.338927658	47.210995
05035	6616174	9.036063	-0.913949	1.775597	0.345267	0.141187	0.128590	-68.995522	-79.525673	-118.845461	39.979148552	116.338927676	47.210631
05036	6616199	8.964405	-0.940018	1.762143	0.360596	0.153983	0.129260	-68.871098	-79.501150	-118.919486	39.979148546	116.338927693	47.210264
05037	6616224	8.872008	-0.975817	1.777922	0.368615	0.167924	0.129619	-68.736068	-79.475826	-119.003137	39.979148540	116.338927711	47.209893
05038	6616249	8.814083	-0.996496	1.780500	0.378850	0.174321	0.130197	-68.595676	-79.450056	-119.090758	39.979148534	116.338927729	47.209516
05039	6616274	8.758870	-1.062561	1.782894	0.381036	0.173718	0.132538	-68.456614	-79.423966	-119.176714	39.979148528	116.338927747	47.209081
05040	6616299	8.717455	-1.113457	1.783993	0.386561	0.181139	0.133264	-68.312240	-79.397349	-119.267276	39.979148522	116.338927765	47.208694
05041	6616324	8.696846	-1.140813	1.743999	0.379124	0.183022	0.135532	-68.168825	-79.370288	-119.357955	39.979148516	116.338927783	47.208300
05042	6616349	8.684487	-1.210789	1.683947	0.370727	0.186864	0.141370	-68.026152	-79.342205	-119.449111	39.979148510	116.338927801	47.207901
05043	6616374	8.751877	-1.309826	1.679659	0.369471	0.193195	0.148338	-67.881806	-79.312814	-119.542160	39.979148504	116.338927819	47.207497
05044	6616399	8.806776	-1.470835	1.676475	0.372113	0.196622	0.152572	-67.736543	-79.282633	-119.635767	39.979148498	116.338927837	47.207086
05045	6616424	8.918285	-1.587684	1.649527	0.356679	0.190866	0.147744	-67.596785	-79.253361	-119.726031	39.979148491	116.338927856	47.206672
05046	6616449	8.963697	-1.688031	1.608007	0.326741	0.183113	0.148273	-67.467475	-79.224405	-119.810033	39.979148485	116.338927874	47.206254
05047	6616474	9.086389	-1.777201	1.537311	0.297210	0.181206	0.149302	-67.344579	-79.195383	-119.891820	39.979148479	116.338927893	47.203955
05048	6616499	9.233923	-1.862219	1.450640	0.263327	0.163281	0.151572	-67.240105	-79.167021	-119.959800	39.979148473	116.338927911	47.203530
05049	6616524	9.324803	-2.021625	1.383675	0.217845	0.151819	0.152674	-67.150792	-79.139130	-120.018984	39.979148467	116.338927930	47.203102
05050	6616549	9.444536	-2.198968	1.337945	0.179994	0.143878	0.148489	-67.071505	-79.112216	-120.073484	39.979148461	116.338927949	47.202674
05051	6616574	9.560164	-2.328240	1.308305	0.136890	0.127360	0.142823	-67.008368	-79.086960	-120.117830	39.979148455	116.338927967	47.202251
05052	6616599	9.719983	-2.435381	1.252196	0.107598	0.103885	0.151297	-66.968137	-79.061893	-120.143124	39.979148448	116.338927986	47.201824
05053	6616624	9.917228	-2.494194	1.133748	0.064358	0.076267	0.153190	-66.953584	-79.038123	-120.148575	39.979148442	116.338928005	47.201400
05054	6616649	10.170869	-2.628640	1.016400	0.020303	0.041951	0.164019	-66.971807	-79.014850	-120.127068	39.979148436	116.338928024	47.200979
05055	6616674	10.428726	-2.769829	0.853841	-0.021522	0.008377	0.178505	-67.022857	-78.991542	-120.078219	39.979148430	116.338928043	47.202622
05056	6616699	10.615098	-2.842099	0.676799	-0.060312	-0.026500	0.182635	-67.104034	-78.969627	-120.004336	39.979148425	116.338928062	47.202215
05057	6616724	10.754565	-2.947382	0.487724	-0.105689	-0.057295	0.188343	-67.213840	-78.948647	-119.907902	39.979148419	116.338928080	47.201816
05058	6616749	10.892775	-2.985222	0.297510	-0.152026	-0.085807	0.198136	-67.351908	-78.927910	-119.789425	39.979148413	116.338928099	47.201426
05059	6616774	11.013226	-2.959646	0.084894	-0.185259	-0.118265	0.203881	-67.517771	-78.908136	-119.647469	39.979148407	116.338928118	47.201048
05060	6616799	11.141927	-2.949225	-0.135722	-0.215955	-0.151044	0.201535	-67.708948	-78.890377	-119.484187	39.979148401	116.338928137	47.200677
05061	6616824	11.223947	-2.853370	-0.368105	-0.231050	-0.177422	0.196600	-67.918167	-78.874590	-119.304712	39.979148396	116.338928155	47.200316
05062	6616849	11.271470	-2.738445	-0.573812	-0.235461	-0.199501	0.195451	-68.142060	-78.860008	-119.110918	39.979148390	116.338928174	47.199966
05063	6616874	11.272266	-2.642493	-0.838100	-0.218272	-0.217003	0.185290	-68.372038	-78.847558	-118.908400	39.979148385	116.338928192	47.203620
05064	6616899	11.297893	-2.498426	-1.083625	-0.178739	-0.231487	0.175056	-68.602952	-78.837075	-118.699151	39.979148379	116.338928211	47.203295
05065	6616924	11.315208	-2.355798	-1.311854	-0.117935	-0.236559	0.156234	-68.823243	-78.829209	-118.491844	39.979148374	116.338928229	47.202979
05066	6616949	11.324106	-2.223057	-1.490920	-0.044400	-0.238806	0.132607	-69.028094	-78.824468	-118.289535	39.979148368	116.338928247	47.202674
05067	6616974	11.346823	-2.043548	-1.655211	0.048818	-0.243798	0.113289	-69.217835	-78.822432	-118.089017	39.979148363	116.338928265	47.202378
05068	6616999	11.329619	-1.836553	-1.823425	0.143279	-0.243330	0.086619	-69.386858	-78.823825	-117.895823	39.979148357	116.338928282	47.202093
05069	6617024	11.328895	-1.618579	-1.957012	0.252602	-0.246148	0.061828	-69.535900	-78.828580	-117.707036	39.979148352	116.338928300	47.201817
05070	6617049	11.290798	-1.469563	-2.064271	0.360806	-0.242941	0.037017	-69.661152	-78.836419	-117.526706	39.979148347	116.338928317	47.201549
05071	6617074	11.258177	-1.279417	-2.138112	0.463608	-0.239302	0.019024	-69.764889	-78.846425	-117.353301	39.979148341	116.338928334	47.201424
05072	6617099	11.222752	-1.093460	-2.188037	0.565840	-0.226168	0.004098	-69.841528	-78.857734	-117.192596	39.979148336	116.338928351	47.201173
05073	6617124	11.176338	-0.856582	-2.229876	0.652458	-0.213805	-0.012895	-69.893296	-78.870685	-117.044600	39.979148330	116.338928368	47.200931
05074	6617149	11.140676	-0.754746	-2.233559	0.729574	-0.200041	-0.018464	-69.923428	-78.883687	-116.907404	39.979148325	116.338928384	47.200695
05075	6617174	11.165419	-0.690357	-2.172141	0.786254	-0.188118	-0.021918	-69.936591	-78.896558	-116.779234	39.979148319	116.338928400	47.200465
05076	6617199	10.811058	-0.700159	-2.085943	0.824668	-0.165412	-0.033729	-69.925873	-78.909902	-116.669798	39.979148313	116.338928416	47.200243
05077	6617224	10.706326	-0.632923	-2.039195	0.860645	-0.140868	-0.058374	-69.887067	-78.925361	-116.583738	39.979148308	116.338928432	47.200025
05078	6617249	10.625511	-0.463284	-2.123643	0.907059	-0.097862	-0.057346	-69.812341	-78.938577	-116.527508	39.979148302	116.338928448	47.199811
05079	6617274	10.396740	-0.119788	-2.448538	0.983264	0.032631	0.009678	-69.653912	-78.936334	-116.545445	39.979148296	116.338928463	47.203617
05080	6617299	10.773909	-1.100439	-1.769482	1.099155	0.140736	0.018419	-69.407012	-78.927491	-116.636615	39.979148290	116.338928478	47.203413
05081	6617324	10.676103	-1.581691	-1.502517	1.160314	0.209890	-0.022662	-69.093670	-78.920555	-116.786565	39.979148284	116.338928493	47.203214
05082	6617349	10.546531	-1.898119	-1.121881	1.189271	0.252438	-0.084668	-68.731089	-78.919544	-116.982463	39.979148278	116.338928508	47.203021
05083	6617374	10.322772	-1.985469	-0.961423	1.178332	0.298999	-0.115611	-68.330142	-78.919966	-117.219055	39.979148273	116.338928522	47.202829
05084	6617399	10.177211	-2.144705	-0.701409	1.119861	0.341740	-0.120015	-67.907365	-78.918365	-117.486425	39.979148267	116.338928537	47.202644
05085	6617424	10.100600	-2.279152	-0.455914	1.053736	0.379388	-0.110318	-67.471437	-78.913046	-117.776851	39.979148261	116.338928551	47.202461
05086	6617449	10.135146	-2.569451	-0.104471	0.961194	0.414325	-0.086930	-67.032260	-78.902276	-118.084104	39.979148255	116.338928566	47.202282
05087	6617474	10.126800	-2.895698	0.296028	0.861903	0.429255	-0.069682	-66.603023	-78.887946	-118.395734	39.979148250	116.338928580	47.202230
05088	6617499	10.085527	-3.194274	0.648716	0.750992	0.437953	-0.050321	-66.190507	-78.870135	-118.706532	39.979148244	116.338928594	47.202059
05089	6617524	10.076856	-3.694026	1.081856	0.628147	0.423741	-0.032920	-65.811338	-78.850461	-119.001296	39.979148238	116.338928609	47.201893
05090	6617549	10.069886	-4.053197	1.458348	0.496841	0.393370	-0.027452	-65.473849	-78.831513	-119.272768	39.979148233	116.338928623	47.201733
05091	6617574	10.048031	-4.321366	1.784580	0.371839	0.353462	-0.022937	-65.182900	-78.814074	-119.515067	39.979148228	116.338928637	47.201581
05092	6617599	9.991871	-4.534379	2.077778	0.260532	0.302823	-0.025791	-64.941014	-78.799847	-119.723618	39.979148222	116.338928652	47.201432
05093	6617624	10.002177	-4.628818	2.304873	0.168695	0.247271	-0.009426	-64.754192	-78.786728	-119.889456	39.979148217	116.338928667	47.201290
05094	6617649	10.068885	-4.786562	2.539807	0.104459	0.179490	0.005898	-64.625914	-78.775688	-120.004996	39.979148212	116.338928681	47.201154
05095	6617674	10.112186	-5.021204	2.727883	0.071409	0.110659	0.009033	-64.548400	-78.768432	-120.073612	39.979148208	116.338928696	47.200210
05096	6617699	10.153097	-5.126201	2.845954	0.055997	0.038847	0.022180	-64.523994	-78.763887	-120.090334	39.979148203	116.338928711	47.200088
05097	6617724	10.119701	-5.255731	2.902718	0.066777	-0.034574	0.024462	-64.546550	-78.763568	-120.057603	39.979148199	116.338928727	47.199975
05098	6617749	10.054745	-5.301289	2.947797	0.102499	-0.100376	0.021397	-64.605901	-78.767688	-119.982141	39.979148194	116.338928742	47.199870
05099	6617774	10.074108	-5.199579	2.974751	0.152755	-0.167629	0.023668	-64.702677	-78.775618	-119.861185	39.979148190	116.338928757	47.199772
05100	6617799	10.122547	-5.129218	2.935148	0.228944	-0.225693	0.027275	-64.827763	-78.786580	-119.700248	39.979148187	116.338928773	47.199683
05101	6617824	10.190555	-4.981571	2.829327	0.317401	-0.287907	0.026329	-64.980942	-78.801369	-119.497761	39.979148183	116.338928789	47.199601
05102	6617849	10.324897	-4.758115	2.673245	0.415096	-0.332123	0.029096	-65.150504	-78.818358	-119.264320	39.979148179	116.338928805	47.199528
05103	6617874	10.390622	-4.473819	2.456133	0.515400	-0.371276	0.027910	-65.331762	-78.837711	-119.004325	39.979148176	116.338928821	47.201594
05104	6617899	10.438729	-4.105333	2.167489	0.610475	-0.407633	0.022469	-65.522593	-78.859775	-118.720712	39.979148173	116.338928838	47.201540
05105	6617924	10.478518	-3.771221	1.873401	0.689191	-0.424869	0.025871	-65.715548	-78.882230	-118.423465	39.979148169	116.338928854	47.201494
05106	6617949	10.497453	-3.506054	1.612291	0.739277	-0.431138	0.026527	-65.906686	-78.904774	-118.120782	39.979148166	116.338928870	47.201457
05109	6617974	10.555073	-3.210532	1.332696	0.780440	-0.430645	0.020941	-66.038932	-78.928840	-117.727501	39.979149172	116.338927530	47.198414
05110	6617999	10.576790	-2.923381	1.071714	0.784549	-0.422564	0.015123	-66.216380	-78.952059	-117.432207	39.979149169	116.338927546	47.198385
05111	6618024	10.570928	-2.633456	0.829294	0.784192	-0.402717	0.006931	-66.379088	-78.975041	-117.152005	39.979149167	116.338927561	47.198362
05112	6618049	10.618778	-2.340880	0.600243	0.764886	-0.382818	0.000040	-66.530015	-78.997643	-116.886644	39.979149165	116.338927577	47.198346
05113	6618074	10.676197	-2.078582	0.379043	0.726587	-0.357285	-0.004804	-66.668559	-79.019301	-116.639506	39.979149162	116.338927593	47.201003
05114	6618099	10.685268	-1.854965	0.185616	0.695247	-0.329058	-0.006767	-66.792587	-79.039512	-116.411745	39.979149160	116.338927608	47.201002
05115	6618124	10.668133	-1.642342	-0.005196	0.644541	-0.294931	-0.014430	-66.899041	-79.058723	-116.209296	39.979149157	116.338927624	47.201008
05116	6618149	10.674308	-1.439487	-0.157466	0.578866	-0.254701	-0.010325	-66.989148	-79.075070	-116.033091	39.979149155	116.338927639	47.201020
05117	6618174	10.735243	-1.337426	-0.216950	0.508492	-0.219771	-0.017384	-67.063787	-79.090347	-115.882913	39.979149152	116.338927655	47.201037
05118	6618199	10.756326	-1.232484	-0.318999	0.434782	-0.193070	-0.015283	-67.131597	-79.103823	-115.750450	39.979149150	116.338927670	47.201061
05119	6618224	10.649240	-1.079453	-0.391707	0.366434	-0.163688	-0.019184	-67.188143	-79.116153	-115.639433	39.979149147	116.338927686	47.201090
05120	6618249	10.601212	-0.983023	-0.422017	0.299706	-0.133334	-0.010116	-67.236178	-79.125582	-115.546820	39.979149145	116.338927701	47.201124
05121	6618274	10.533698	-0.999507	-0.428756	0.238797	-0.107424	-0.004520	-67.276839	-79.132824	-115.470601	39.979149142	116.338927716	47.206479
05122	6618299	10.371282	-0.953892	-0.475227	0.183241	-0.079745	-0.006750	-67.305827	-79.138821	-115.414374	39.979149140	116.338927731	47.206525
05123	6618324	10.239064	-0.918032	-0.480511	0.148200	-0.055817	-0.007804	-67.323086	-79.143632	-115.375202	39.979149137	116.338927746	47.206575
05124	6618349	10.164549	-0.904475	-0.428647	0.111514	-0.029622	-0.010446	-67.326803	-79.147343	-115.355169	39.979149134	116.338927761	47.206626
05125	6618374	10.056787	-0.950186	-0.342445	0.082837	-0.008680	-0.007679	-67.320993	-79.149533	-115.349019	39.979149132	116.338927775	47.206676
05126	6618399	9.921524	-0.998570	-0.276165	0.047982	0.010188	-0.004077	-67.308201	-79.150204	-115.355062	39.979149129	116.338927790	47.206730
05127	6618424	9.718543	-1.118607	-0.180954	0.011246	0.025699	-0.004074	-67.289977	-79.150018	-115.371993	39.979149126	116.338927805	47.206785
05128	6618449	9.625784	-1.253824	-0.079044	-0.021362	0.037786	0.004016	-67.270429	-79.148092	-115.395029	39.979149123	116.338927819	47.206838
05129	6618474	9.549478	-1.438582	0.022667	-0.054753	0.052160	0.000402	-67.244725	-79.145847	-115.429202	39.979149120	116.338927834	47.208476
05130	6618499	9.480213	-1.544847	0.110062	-0.085992	0.063486	-0.003818	-67.214487	-79.143527	-115.472550	39.979149117	116.338927848	47.208529
05131	6618524	9.359804	-1.638994	0.265263	-0.101370	0.072683	-0.004581	-67.179916	-79.140794	-115.522552	39.979149114	116.338927863	47.208580
05132	6618549	9.262881	-1.727574	0.404576	-0.116518	0.085904	-0.007738	-67.137527	-79.137735	-115.582724	39.979149112	116.338927877	47.208629
05133	6618574	9.157632	-1.840914	0.549091	-0.120355	0.092530	-0.013876	-67.089378	-79.135109	-115.649322	39.979149109	116.338927891	47.208672
05134	6618599	9.077192	-1.969407	0.684271	-0.122961	0.104247	-0.014730	-67.033333	-79.131929	-115.724341	39.979149106	116.338927906	47.208716
05135	6618624	9.022896	-2.070464	0.850109	-0.118443	0.109437	-0.018977	-66.971877	-79.129005	-115.804212	39.979149103	116.338927920	47.208756
05136	6618649	8.863934	-2.171412	0.990660	-0.104566	0.109090	-0.015227	-66.909806	-79.125590	-115.882685	39.979149100	116.338927934	47.208793
05137	6618674	8.794653	-2.240645	1.110075	-0.097597	0.107147	-0.021023	-66.846412	-79.123031	-115.961489	39.979149098	116.338927949	47.212183
05138	6618699	8.682581	-2.309974	1.252073	-0.069042	0.099078	-0.015265	-66.786182	-79.120154	-116.032908	39.979149095	116.338927963	47.212213
05139	6618724	8.591254	-2.431357	1.332747	-0.043227	0.094824	-0.017199	-66.724632	-79.117756	-116.101906	39.979149092	116.338927978	47.212239
05140	6618749	8.497222	-2.504614	1.428191	-0.017254	0.089049	-0.018884	-66.662842	-79.115894	-116.167361	39.979149089	116.338927992	47.212259
05141	6618774	8.440360	-2.576543	1.532973	0.013401	0.083053	-0.022291	-66.599774	-79.114807	-116.229646	39.979149087	116.338928007	47.212271
05142	6618799	8.367005	-2.648448	1.624463	0.043446	0.068715	-0.032103	-66.539302	-79.115814	-116.284904	39.979149084	116.338928022	47.212279
05143	6618824	8.311650	-2.696859	1.693435	0.066872	0.054197	-0.029521	-66.486151	-79.117300	-116.329291	39.979149082	116.338928036	47.212281
05144	6618849	8.296309	-2.736922	1.735845	0.086910	0.048040	-0.028224	-66.434707	-79.118960	-116.369016	39.979149080	116.338928051	47.212276
05145	6618874	8.250642	-2.803145	1.787407	0.104412	0.029358	-0.028956	-66.393282	-79.121780	-116.395986	39.979149077	116.338928066	47.209199
05146	6618899	8.216103	-2.826613	1.803298	0.120991	0.013031	-0.029188	-66.360548	-79.125566	-116.411688	39.979149075	116.338928081	47.209178
05147	6618924	8.203631	-2.873373	1.801799	0.129083	-0.009347	-0.032064	-66.341066	-79.131012	-116.412714	39.979149073	116.338928096	47.209150
05148	6618949	8.178779	-2.892708	1.812346	0.138168	-0.024824	-0.031227	-66.331104	-79.137239	-116.402721	39.979149071	116.338928112	47.209116
05149	6618974	8.158261	-2.880095	1.755212	0.132792	-0.033650	-0.024219	-66.330051	-79.143054	-116.384442	39.979149069	116.338928127	47.209073
05150	6618999	8.155694	-2.874309	1.687400	0.125203	-0.045465	-0.022070	-66.338825	-79.149267	-116.357263	39.979149067	116.338928142	47.209024
05151	6619024	8.159933	-2.894767	1.628834	0.120890	-0.048742	-0.013046	-66.353189	-79.154482	-116.325023	39.979149065	116.338928158	47.208967
05152	6619049	8.190413	-2.901362	1.558377	0.104438	-0.045608	-0.008775	-66.369064	-79.158956	-116.293644	39.979149063	116.338928173	47.208904
05153	6619074	8.160186	-2.864168	1.542488	0.098000	-0.042258	-0.005685	-66.384510	-79.162830	-116.263640	39.979149061	116.338928189	47.211293
05154	6619099	8.161679	-2.868098	1.498590	0.099278	-0.047296	0.000682	-66.405153	-79.166156	-116.228160	39.979149060	116.338928205	47.211217
05155	6619124	8.115122	-2.840197	1.390949	0.096880	-0.053550	-0.001663	-66.429747	-79.170145	-116.189008	39.979149058	116.338928220	47.211133
05156	6619149	8.090581	-2.823311	1.297908	0.092213	-0.054078	0.000690	-66.456098	-79.173852	-116.148746	39.979149057	116.338928236	47.211041
05157	6619174	8.077140	-2.796699	1.172995	0.094743	-0.046395	0.002086	-66.477249	-79.176934	-116.113412	39.979149055	116.338928252	47.210940
05158	6619199	8.038802	-2.794947	1.079883	0.086078	-0.038050	0.007543	-66.495553	-79.178819	-116.082240	39.979149054	116.338928268	47.210832
05159	6619224	8.019678	-2.782315	1.016061	0.086452	-0.030118	0.007977	-66.508488	-79.180193	-116.056479	39.979149053	116.338928284	47.210716
05160	6619249	8.028079	-2.799992	0.950857	0.079256	-0.025690	0.006849	-66.519078	-79.181461	-116.034156	39.979149051	116.338928300	47.210591
05161	6619274	7.982819	-2.768063	0.881779	0.063805	-0.017929	0.011182	-66.527841	-79.181717	-116.015945	39.979149050	116.338928316	47.211060
05162	6619299	7.961028	-2.755303	0.788724	0.062275	-0.010198	0.018835	-66.533793	-79.180525	-116.000820	39.979149049	116.338928332	47.210918
05163	6619324	7.915827	-2.720560	0.699706	0.052109	-0.006999	0.024033	-66.540549	-79.178468	-115.986358	39.979149048	116.338928348	47.210767
05164	6619349	7.873186	-2.749287	0.655699	0.050326	0.007893	0.023437	-66.537144	-79.175639	-115.982502	39.979149048	116.338928364	47.210606
05165	6619374	7.849877	-2.740839	0.613162	0.045913	0.015834	0.028175	-66.530329	-79.171736	-115.982761	39.979149047	116.338928380	47.210434
05166	6619399	7.830694	-2.743428	0.567907	0.044186	0.023498	0.027460	-66.518287	-79.167488	-115.988593	39.979149046	116.338928396	47.210254
05167	6619424	7.775680	-2.736413	0.532015	0.034806	0.036386	0.031774	-66.500039	-79.161938	-116.002112	39.979149045	116.338928412	47.210063
05168	6619449	7.731685	-2.717016	0.500132	0.033076	0.047123	0.029047	-66.473879	-79.156132	-116.023940	39.979149045	116.338928428	47.209862
05169	6619474	7.715207	-2.673008	0.501605	0.026190	0.056626	0.035900	-66.444265	-79.148880	-116.050288	39.979149044	116.338928444	47.213011
05170	6619499	7.661544	-2.644024	0.485695	0.026082	0.061972	0.041237	-66.412641	-79.140618	-116.078700	39.979149044	116.338928460	47.212791
05171	6619524	7.624319	-2.659172	0.489621	0.022846	0.066289	0.049634	-66.381085	-79.131004	-116.107516	39.979149043	116.338928476	47.212560
05172	6619549	7.604974	-2.661988	0.506874	0.021011	0.072457	0.054330	-66.347039	-79.120416	-116.139137	39.979149043	116.338928492	47.212318
05173	6619574	7.545716	-2.678480	0.500137	0.021605	0.080182	0.057907	-66.308774	-79.108911	-116.174967	39.979149043	116.338928508	47.212063
05174	6619599	7.513920	-2.711565	0.527953	0.029688	0.088756	0.055447	-66.262857	-79.097230	-116.217413	39.979149043	116.338928524	47.211797
05175	6619624	7.451900	-2.718427	0.526578	0.037153	0.097898	0.048956	-66.207806	-79.085864	-116.268073	39.979149043	116.338928540	47.211518
05176	6619649	7.389914	-2.693666	0.533259	0.049084	0.109236	0.049415	-66.143600	-79.073773	-116.326319	39.979149043	116.338928556	47.211228
05177	6619674	7.356758	-2.677326	0.570536	0.062396	0.114113	0.050077	-66.074515	-79.061299	-116.387593	39.979149043	116.338928572	47.213345
05178	6619699	7.297515	-2.640226	0.593236	0.081259	0.116685	0.049973	-66.001109	-79.048675	-116.450520	39.979149043	116.338928588	47.213030
05179	6619724	7.238291	-2.607216	0.606604	0.105253	0.123642	0.043234	-65.917696	-79.036510	-116.520142	39.979149043	116.338928604	47.212702
05180	6619749	7.184621	-2.571419	0.593385	0.121613	0.128722	0.045550	-65.829386	-79.023725	-116.592368	39.979149044	116.338928620	47.212360
05181	6619774	7.141914	-2.549405	0.604095	0.146350	0.135575	0.043848	-65.732596	-79.010738	-116.669626	39.979149044	116.338928636	47.212002
05182	6619799	7.108833	-2.552153	0.604051	0.167327	0.141136	0.044577	-65.629497	-78.997301	-116.750253	39.979149044	116.338928652	47.211631
05183	6619824	7.068957	-2.528677	0.593496	0.189058	0.146253	0.037195	-65.517834	-78.984496	-116.836437	39.979149045	116.338928668	47.211246
05184	6619849	7.016507	-2.560404	0.606633	0.213282	0.149220	0.034423	-65.400102	-78.971842	-116.925274	39.979149046	116.338928684	47.210846
05185	6619874	7.013709	-2.545359	0.633252	0.224668	0.154391	0.025290	-65.274722	-78.960032	-117.020243	39.979149046	116.338928700	47.212864
05186	6619899	6.980629	-2.495945	0.663981	0.244278	0.154118	0.017832	-65.144656	-78.949168	-117.117129	39.979149047	116.338928716	47.212435
05187	6619924	6.965564	-2.455979	0.652140	0.249255	0.151023	0.015044	-65.015293	-78.938810	-117.212576	39.979149048	116.338928732	47.211991
05188	6619949	6.942160	-2.427137	0.664191	0.262828	0.146274	0.012767	-64.886638	-78.928995	-117.305324	39.979149049	116.338928748	47.211531
05189	6619974	6.893943	-2.377657	0.684267	0.269301	0.138058	0.011183	-64.762194	-78.919847	-117.392839	39.979149050	116.338928764	47.211055
05190	6619999	6.885784	-2.332193	0.668462	0.278069	0.133885	0.004782	-64.637423	-78.911747	-117.479411	39.979149051	116.338928780	47.210563
05191	6620024	6.877556	-2.292316	0.676558	0.283295	0.134115	0.007589	-64.512788	-78.903233	-117.565083	39.979149052	116.338928796	47.210055
05192	6620049	6.869332	-2.270260	0.667344	0.285329	0.124139	0.010632	-64.395547	-78.894907	-117.642926	39.979149053	116.338928812	47.209531
05193	6620074	6.808769	-2.242673	0.658078	0.286619	0.123468	0.004603	-64.276803	-78.887370	-117.722115	39.979149054	116.338928829	47.206849
05194	6620099	6.775701	-2.233093	0.667382	0.289910	0.112081	0.003003	-64.164682	-78.880719	-117.794075	39.979149055	116.338928845	47.206290
05195	6620124	6.804744	-2.187627	0.647619	0.285447	0.105490	0.002535	-64.057479	-78.874513	-117.861677	39.979149057	116.338928861	47.205714
05196	6620149	6.742865	-2.137978	0.627777	0.286950	0.098880	0.002047	-63.954325	-78.868762	-117.924933	39.979149058	116.338928877	47.205121
05197	6620174	6.738806	-2.114517	0.610576	0.279044	0.094801	0.004123	-63.855720	-78.862978	-117.984710	39.979149059	116.338928893	47.204509
05198	6620199	6.704501	-2.089586	0.565428	0.269462	0.093110	0.000907	-63.758638	-78.857696	-118.044333	39.979149061	116.338928909	47.203881
05199	6620224	6.672954	-2.034441	0.541656	0.265776	0.092438	0.006220	-63.664308	-78.851754	-118.101691	39.979149062	116.338928925	47.203236
05200	6620249	6.644146	-2.006769	0.504493	0.256309	0.093995	0.007965	-63.570965	-78.845471	-118.159427	39.979149064	116.338928941	47.202572
05201	6620274	6.633138	-1.994405	0.504555	0.257584	0.093810	0.000560	-63.475243	-78.840131	-118.219400	39.979149065	116.338928958	47.203592
05202	6620299	6.616783	-1.955669	0.456768	0.261760	0.102720	0.002781	-63.373940	-78.833916	-118.284456	39.979149067	116.338928974	47.202894
05203	6620324	6.596304	-1.905936	0.405089	0.259082	0.109933	0.001372	-63.267980	-78.827394	-118.354651	39.979149069	116.338928990	47.202177
05204	6620349	6.555066	-1.892050	0.375850	0.262062	0.127378	-0.001572	-63.149449	-78.820096	-118.437225	39.979149071	116.338929006	47.201442
05205	6620374	6.537209	-1.868627	0.363950	0.262430	0.145723	0.003377	-63.020780	-78.810942	-118.530084	39.979149072	116.338929022	47.200686
05206	6620399	6.516623	-1.860246	0.338689	0.271647	0.164285	-0.009008	-62.874933	-78.802115	-118.639110	39.979149074	116.338929038	47.199913
05207	6620424	6.487751	-1.835428	0.325469	0.277601	0.183615	-0.009105	-62.715980	-78.791978	-118.760631	39.979149076	116.338929054	47.199120
05209	6620449	6.472599	-1.787368	0.354880	0.283492	0.204588	-0.013600	-62.541497	-78.780964	-118.897129	39.979149078	116.338929070	47.198308
05211	6620474	6.429913	-1.759846	0.356270	0.287680	0.227635	-0.019628	-62.336267	-78.765085	-119.169970	39.979149423	116.338928274	47.251664
05212	6620499	6.428502	-1.731060	0.386959	0.287017	0.241627	-0.025366	-62.134428	-78.752908	-119.333857	39.979149424	116.338928290	47.250984
05213	6620524	6.425763	-1.696732	0.401691	0.284241	0.259325	-0.033198	-61.919494	-78.740417	-119.511509	39.979149426	116.338928305	47.250285
05214	6620549	6.410575	-1.662437	0.432369	0.280021	0.271404	-0.035761	-61.697082	-78.727299	-119.697409	39.979149428	116.338928321	47.249566
05215	6620574	6.384342	-1.643306	0.465670	0.273101	0.291552	-0.041366	-61.461509	-78.713369	-119.897749	39.979149430	116.338928336	47.248826
05216	6620599	6.380118	-1.650300	0.501544	0.257683	0.310807	-0.048293	-61.214193	-78.698822	-120.112326	39.979149432	116.338928352	47.248067
05217	6620624	6.364937	-1.610514	0.530926	0.247316	0.318438	-0.051777	-60.962969	-78.684001	-120.332413	39.979149434	116.338928367	47.247288
05218	6620649	6.360642	-1.619002	0.592061	0.234094	0.331992	-0.058119	-60.703588	-78.668834	-120.562763	39.979149436	116.338928383	47.246488
05219	6620674	6.366057	-1.593066	0.646669	0.212872	0.347450	-0.069049	-60.434453	-78.653735	-120.806173	39.979149438	116.338928398	47.247772
05220	6620699	6.400475	-1.551935	0.682727	0.197454	0.357099	-0.065844	-60.163378	-78.637326	-121.053828	39.979149440	116.338928414	47.246934
05221	6620724	6.387932	-1.552130	0.739913	0.183499	0.368795	-0.065275	-59.888053	-78.619778	-121.307872	39.979149442	116.338928429	47.246076
05222	6620749	6.383672	-1.530380	0.806463	0.170897	0.377320	-0.068714	-59.608888	-78.601798	-121.567691	39.979149444	116.338928445	47.245198
05223	6620774	6.376665	-1.515449	0.858406	0.158310	0.380884	-0.072902	-59.328686	-78.583825	-121.830422	39.979149447	116.338928460	47.244300
05224	6620799	6.368277	-1.532106	0.904868	0.153038	0.382185	-0.071314	-59.049883	-78.565307	-122.092514	39.979149449	116.338928476	47.243382
05225	6620824	6.350197	-1.547458	0.961985	0.141320	0.388466	-0.072165	-58.769525	-78.546177	-122.357922	39.979149451	116.338928491	47.242443
05226	6620849	6.329376	-1.562787	1.012466	0.128560	0.398836	-0.075105	-58.484582	-78.526373	-122.629892	39.979149453	116.338928507	47.241485
05227	6620874	6.300374	-1.549148	1.045754	0.116424	0.403845	-0.076146	-58.198955	-78.506051	-122.904354	39.979149455	116.338928522	47.238353
05228	6620899	6.265852	-1.541013	1.076348	0.101450	0.417323	-0.079173	-57.907300	-78.484800	-123.187176	39.979149458	116.338928538	47.237353
05229	6620924	6.245091	-1.532924	1.125548	0.083514	0.424264	-0.078881	-57.615270	-78.462696	-123.473024	39.979149460	116.338928554	47.236331
05230	6620949	6.203627	-1.513882	1.184126	0.063927	0.428900	-0.076020	-57.325501	-78.439600	-123.759451	39.979149462	116.338928569	47.235289
05231	6620974	6.159326	-1.529287	1.259828	0.046150	0.432876	-0.070508	-57.039193	-78.415243	-124.044969	39.979149465	116.338928585	47.234226
05232	6620999	6.116481	-1.573411	1.287607	0.034814	0.437383	-0.067019	-56.754414	-78.389831	-124.330609	39.979149467	116.338928601	47.233142
05233	6621024	6.044710	-1.573576	1.330095	0.018427	0.443111	-0.058857	-56.473043	-78.362707	-124.615193	39.979149469	116.338928617	47.232036
05234	6621049	5.985428	-1.624411	1.316606	-0.000370	0.443688	-0.059886	-56.194950	-78.335380	-124.899207	39.979149472	116.338928633	47.230909
05235	6621074	5.909503	-1.624609	1.372410	-0.020063	0.450271	-0.065838	-55.914908	-78.307955	-125.188119	39.979149474	116.338928649	47.232189
05236	6621099	5.866609	-1.628994	1.438873	-0.041078	0.456597	-0.056456	-55.639258	-78.278626	-125.475650	39.979149477	116.338928665	47.231018
05237	6621124	5.849941	-1.660785	1.478642	-0.054212	0.450628	-0.054102	-55.371198	-78.249227	-125.757381	39.979149479	116.338928681	47.229826
05238	6621149	5.824991	-1.681593	1.519781	-0.074744	0.451210	-0.050932	-55.108367	-78.219143	-126.036805	39.979149482	116.338928697	47.228610
05239	6621174	5.772532	-1.722906	1.536904	-0.096507	0.449047	-0.040855	-54.855220	-78.187797	-126.309552	39.979149484	116.338928713	47.227371
05240	6621199	5.766993	-1.765514	1.522127	-0.115077	0.448258	-0.040121	-54.606851	-78.156187	-126.580168	39.979149487	116.338928729	47.226110
05241	6621224	5.786208	-1.809569	1.527310	-0.142020	0.452389	-0.029831	-54.365517	-78.122797	-126.847569	39.979149490	116.338928745	47.224825
05242	6621249	5.798430	-1.878498	1.559018	-0.163364	0.461480	-0.030200	-54.123514	-78.088458	-127.118812	39.979149493	116.338928762	47.223518
05243	6621274	5.856222	-1.914331	1.572231	-0.183482	0.470810	-0.027658	-53.881780	-78.052803	-127.392761	39.979149495	116.338928778	47.222153
05244	6621299	5.889133	-1.976361	1.594650	-0.206223	0.477979	-0.017403	-53.645041	-78.015120	-127.664970	39.979149498	116.338928795	47.220801
05245	6621324	5.919308	-2.008159	1.639773	-0.204708	0.485319	-0.018653	-53.405217	-77.976721	-127.940150	39.979149501	116.338928811	47.219428
05246	6621349	6.004538	-2.067539	1.686173	-0.209478	0.488044	-0.015421	-53.167552	-77.937480	-128.213861	39.979149504	116.338928828	47.218033
05247	6621374	6.059531	-2.130900	1.700629	-0.205015	0.492419	-0.011237	-52.930262	-77.897146	-128.486575	39.979149507	116.338928844	47.216619
05248	6621399	6.103439	-2.190206	1.740370	-0.195315	0.492457	-0.012229	-52.692858	-77.856687	-128.758026	39.979149510	116.338928861	47.215183
05249	6621424	6.162529	-2.283834	1.744079	-0.178456	0.487684	-0.008127	-52.458902	-77.815942	-129.023520	39.979149513	116.338928878	47.213727
05250	6621449	6.206444	-2.352762	1.783759	-0.160797	0.491244	-0.006293	-52.222968	-77.774449	-129.288491	39.979149516	116.338928895	47.212251
05251	6621474	6.304149	-2.421626	1.794223	-0.145359	0.483611	-0.010754	-51.988671	-77.733902	-129.549567	39.979149520	116.338928912	47.209203
05252	6621499	6.386738	-2.468470	1.799434	-0.118350	0.483096	-0.013426	-51.751322	-77.693474	-129.809846	39.979149523	116.338928929	47.207688
05253	6621524	6.472076	-2.502944	1.820651	-0.097863	0.474320	-0.009543	-51.518748	-77.653163	-130.062273	39.979149526	116.338928946	47.206156
05254	6621549	6.586492	-2.522090	1.776770	-0.073116	0.471364	-0.006318	-51.287032	-77.612538	-130.310232	39.979149530	116.338928963	47.204606
05255	6621574	6.666452	-2.567370	1.742104	-0.047034	0.467613	-0.004978	-51.055595	-77.571885	-130.554118	39.979149533	116.338928980	47.203043
05256	6621599	6.725698	-2.611324	1.712740	-0.025582	0.470032	0.000912	-50.823837	-77.530148	-130.795226	39.979149537	116.338928997	47.201460
05257	6621624	6.815245	-2.659415	1.695339	-0.003779	0.471364	0.002401	-50.590481	-77.487914	-131.034810	39.979149541	116.338929015	47.199862
05258	6621649	6.928264	-2.671745	1.680742	0.018887	0.473504	0.002776	-50.354568	-77.445232	-131.273728	39.979149545	116.338929032	47.198249
05259	6621674	6.998631	-2.645554	1.652938	0.044309	0.485957	0.002468	-50.110374	-77.401225	-131.517439	39.979149548	116.338929050	47.195358
05260	6621699	7.106144	-2.637275	1.642405	0.066867	0.494410	0.008929	-49.863184	-77.355505	-131.760952	39.979149552	116.338929067	47.193715
05261	6621724	7.175098	-2.653673	1.607805	0.080000	0.511266	0.012922	-49.609359	-77.307555	-132.009382	39.979149556	116.338929085	47.192059
05262	6621749	7.277044	-2.677069	1.603809	0.096385	0.525066	0.020272	-49.351479	-77.257277	-132.259611	39.979149560	116.338929102	47.190389
05263	6621774	7.356912	-2.707363	1.607725	0.109223	0.547926	0.030987	-49.087284	-77.203449	-132.514481	39.979149565	116.338929120	47.188710
05264	6621799	7.461555	-2.702024	1.645067	0.118980	0.566848	0.036651	-48.817264	-77.146966	-132.773947	39.979149569	116.338929137	47.187017
05265	6621824	7.490392	-2.747483	1.652906	0.131349	0.591900	0.041696	-48.538141	-77.087296	-133.040994	39.979149573	116.338929155	47.185312
05266	6621849	7.526118	-2.765512	1.690090	0.137310	0.612864	0.052230	-48.255308	-77.024213	-133.311038	39.979149578	116.338929173	47.183596
05267	6621874	7.564548	-2.772617	1.745966	0.140819	0.632514	0.055705	-47.967049	-76.958579	-133.586202	39.979149582	116.338929190	47.187072
05268	6621899	7.613937	-2.790796	1.824381	0.143433	0.650178	0.061747	-47.675702	-76.890292	-133.864228	39.979149587	116.338929208	47.185339
05269	6621924	7.595874	-2.771839	1.904221	0.136407	0.658983	0.072621	-47.388841	-76.819688	-134.138760	39.979149591	116.338929226	47.183595
05270	6621949	7.614856	-2.788774	2.011871	0.130418	0.667232	0.084271	-47.106966	-76.746748	-134.409131	39.979149596	116.338929244	47.181842
05271	6621974	7.644906	-2.809800	2.107563	0.122318	0.666259	0.098041	-46.835389	-76.672164	-134.670195	39.979149601	116.338929262	47.180079
05272	6621999	7.633605	-2.848654	2.201836	0.102201	0.663044	0.105496	-46.574127	-76.596839	-134.923701	39.979149606	116.338929280	47.178306
05273	6622024	7.666394	-2.847730	2.316219	0.089593	0.655769	0.113326	-46.323910	-76.521160	-135.167786	39.979149611	116.338929298	47.176524
05274	6622049	7.693734	-2.871393	2.387974	0.066729	0.643440	0.129631	-46.091709	-76.444778	-135.396789	39.979149616	116.338929316	47.174732
05275	6622074	7.701696	-2.886996	2.502306	0.051688	0.632633	0.142726	-45.874198	-76.367913	-135.612966	39.979149621	116.338929335	47.177450
05276	6622099	7.745650	-2.874851	2.572838	0.030091	0.621346	0.160737	-45.674330	-76.290143	-135.814242	39.979149626	116.338929353	47.175645
05277	6622124	7.753659	-2.890327	2.661894	0.021000	0.600091	0.167291	-45.489546	-76.213674	-136.001396	39.979149632	116.338929372	47.173831
05278	6622149	7.790613	-2.912687	2.748303	0.008895	0.587036	0.178647	-45.318559	-76.137222	-136.176189	39.979149637	116.338929390	47.172008
05279	6622174	7.768434	-2.919743	2.801438	0.008620	0.567672	0.189413	-45.161808	-76.061509	-136.336414	39.979149643	116.338929409	47.170179
05280	6622199	7.768259	-2.906265	2.877331	0.017264	0.553286	0.198674	-45.015124	-75.986209	-136.485040	39.979149648	116.338929428	47.168341
05281	6622224	7.748782	-2.905173	2.955760	0.031620	0.535241	0.201629	-44.876425	-75.912351	-136.623365	39.979149654	116.338929446	47.166494
05282	6622249	7.740476	-2.835213	3.014509	0.053193	0.516811	0.209048	-44.746439	-75.839538	-136.749562	39.979149660	116.338929465	47.164640
05283	6622274	7.707148	-2.828740	3.119581	0.078598	0.506167	0.219691	-44.622628	-75.766669	-136.865678	39.979149665	116.338929485	47.163099
05284	6622299	7.668455	-2.820635	3.170111	0.106494	0.486976	0.223698	-44.505211	-75.695296	-136.971110	39.979149671	116.338929504	47.161229
05285	6622324	7.683643	-2.758795	3.191616	0.139621	0.471923	0.224853	-44.390508	-75.625294	-137.068876	39.979149677	116.338929523	47.159350
05286	6622349	7.707104	-2.702450	3.209130	0.163959	0.460732	0.228955	-44.279329	-75.555981	-137.159433	39.979149683	116.338929543	47.157464
05287	6622374	7.731931	-2.640643	3.239903	0.198852	0.458975	0.232628	-44.166256	-75.486437	-137.246815	39.979149689	116.338929562	47.155570
05288	6622399	7.749860	-2.562353	3.274767	0.222729	0.455223	0.241937	-44.055841	-75.416308	-137.327944	39.979149695	116.338929582	47.153667
05289	6622424	7.785629	-2.565195	3.297394	0.250116	0.455792	0.248006	-43.944599	-75.345477	-137.405899	39.979149702	116.338929602	47.151757
05290	6622449	7.795179	-2.591429	3.322570	0.269859	0.458802	0.255264	-43.833155	-75.273577	-137.481166	39.979149708	116.338929622	47.149839
05291	6622474	7.857121	-2.632761	3.323783	0.277872	0.456849	0.260550	-43.724266	-75.201318	-137.552626	39.979149714	116.338929642	47.152098
05292	6622499	7.920406	-2.668598	3.338334	0.283402	0.468232	0.262791	-43.612096	-75.127623	-137.626687	39.979149721	116.338929663	47.150170
05293	6622524	8.033352	-2.708518	3.338246	0.271416	0.469182	0.257418	-43.500106	-75.054323	-137.702363	39.979149727	116.338929683	47.148235
05294	6622549	8.151866	-2.718142	3.327658	0.257181	0.467131	0.258386	-43.392186	-74.981104	-137.775962	39.979149734	116.338929704	47.146295
05295	6622574	8.328188	-2.734727	3.339637	0.231703	0.463875	0.262281	-43.291474	-74.907806	-137.845903	39.979149740	116.338929724	47.144354
05296	6622599	8.536314	-2.769017	3.301062	0.204144	0.451155	0.256993	-43.198082	-74.836324	-137.912373	39.979149747	116.338929745	47.142406
05297	6622624	8.756842	-2.778603	3.273210	0.172390	0.436124	0.253434	-43.114010	-74.766734	-137.973920	39.979149754	116.338929766	47.140456
05298	6622649	8.991227	-2.757840	3.224182	0.126372	0.396578	0.246641	-43.048709	-74.701926	-138.022863	39.979149760	116.338929787	47.138505
05299	6622674	9.236824	-2.697008	3.135422	0.067590	0.358339	0.248927	-43.006762	-74.640886	-138.056334	39.979149767	116.338929808	47.138332
05300	6622699	9.465954	-2.668977	2.982698	0.016715	0.309405	0.257629	-42.993021	-74.584118	-138.068120	39.979149774	116.338929829	47.136385
05301	6622724	9.711742	-2.602347	2.818163	-0.037561	0.253695	0.262734	-43.008731	-74.532687	-138.057420	39.979149781	116.338929851	47.134441
05302	6622749	9.938384	-2.440746	2.637955	-0.094874	0.197163	0.267561	-43.054279	-74.486702	-138.024274	39.979149788	116.338929872	47.132501
05303	6622774	10.122281	-2.345098	2.454820	-0.145057	0.135532	0.287600	-43.135978	-74.445192	-137.961060	39.979149795	116.338929893	47.130571
05304	6622799	10.186358	-2.278147	2.209060	-0.186914	0.062734	0.288403	-43.249174	-74.411178	-137.871361	39.979149802	116.338929915	47.128642
05305	6622824	10.298955	-2.122844	1.895839	-0.221841	0.003546	0.296292	-43.390691	-74.382503	-137.757438	39.979149809	116.338929936	47.126718
05306	6622849	10.372759	-1.999466	1.664864	-0.260024	-0.061254	0.289570	-43.557549	-74.361143	-137.622867	39.979149816	116.338929957	47.124799
05307	6622874	10.404080	-1.746710	1.405020	-0.287972	-0.136335	0.279737	-43.750892	-74.348423	-137.464937	39.979149823	116.338929979	47.124956
05308	6622899	10.432658	-1.529616	1.118539	-0.312637	-0.207131	0.284505	-43.974337	-74.342387	-137.279408	39.979149830	116.338930000	47.123049
05309	6622924	10.388132	-1.382597	0.823781	-0.332838	-0.281476	0.277992	-44.224613	-74.344440	-137.069017	39.979149837	116.338930021	47.121147
05312	6622949	10.444112	-1.223403	0.566347	-0.340936	-0.346276	0.266288	-44.495045	-74.354044	-136.838905	39.979149844	116.338930042	47.119249
05313	6622974	10.522167	-1.097134	0.282230	-0.363889	-0.404315	0.259557	-44.806119	-74.363986	-137.073694	39.979149712	116.338929652	47.163398
05314	6622999	10.625008	-0.951620	0.016786	-0.372289	-0.464806	0.243512	-45.116430	-74.387256	-136.806868	39.979149718	116.338929672	47.161661
05315	6623024	10.734674	-0.797957	-0.221951	-0.367887	-0.526267	0.230843	-45.444870	-74.417610	-136.520599	39.979149724	116.338929693	47.159929
05316	6623049	10.918638	-0.634963	-0.410158	-0.338160	-0.574331	0.209118	-45.780155	-74.454556	-136.222853	39.979149730	116.338929713	47.158200
05317	6623074	11.171441	-0.500834	-0.589103	-0.300503	-0.631538	0.191119	-46.126366	-74.498577	-135.908225	39.979149736	116.338929733	47.159469
05318	6623099	11.433941	-0.361129	-0.786617	-0.250857	-0.678708	0.171188	-46.477920	-74.548816	-135.580748	39.979149742	116.338929753	47.157755
05319	6623124	11.768074	-0.220170	-0.977454	-0.194475	-0.726770	0.151132	-46.834666	-74.605329	-135.239591	39.979149748	116.338929773	47.156049
05320	6623149	12.144654	-0.148160	-1.101987	-0.130253	-0.771772	0.132704	-47.195440	-74.667599	-134.884814	39.979149754	116.338929793	47.154353
05321	6623174	12.536342	-0.127151	-1.226682	-0.061736	-0.822491	0.101991	-47.558031	-74.737431	-134.518091	39.979149759	116.338929812	47.152679
05322	6623199	13.107162	-0.099222	-1.360578	-0.000696	-0.863646	0.068699	-47.919528	-74.814144	-134.143568	39.979149765	116.338929831	47.151010
05323	6623224	13.741359	-0.122156	-1.510510	0.058022	-0.910831	0.035408	-48.283235	-74.898296	-133.758185	39.979149770	116.338929850	47.149359
05324	6623249	14.399138	-0.084423	-1.692152	0.095129	-0.949227	-0.001903	-48.648009	-74.989453	-133.366352	39.979149775	116.338929868	47.147730
05325	6623274	15.070486	-0.031972	-1.786007	0.127499	-0.984569	-0.030814	-49.016873	-75.086408	-132.965660	39.979149780	116.338929886	47.141540
05326	6623299	15.700789	0.029165	-1.974230	0.144434	-1.005151	-0.053902	-49.388627	-75.187121	-132.559651	39.979149785	116.338929904	47.139963
05327	6623324	16.344342	-0.018916	-2.035219	0.156747	-1.020638	-0.060050	-49.768177	-75.289258	-132.143946	39.979149790	116.338929921	47.138419
05328	6623349	17.043129	-0.039431	-2.115990	0.158475	-1.037205	-0.067535	-50.157351	-75.393030	-131.718234	39.979149795	116.338929939	47.136913
05329	6623374	17.544399	-0.045353	-2.037330	0.145370	-1.051614	-0.063516	-50.561766	-75.496927	-131.278915	39.979149799	116.338929955	47.135468
05330	6623399	17.996146	-0.179029	-1.993737	0.135860	-1.089073	-0.048822	-50.994980	-75.601776	-130.811470	39.979149803	116.338929972	47.134047
05331	6623424	18.332551	-0.302456	-2.130783	0.119631	-1.122655	-0.037275	-51.455885	-75.707435	-130.318064	39.979149807	116.338929988	47.132674
05332	6623449	18.585902	-0.495000	-2.181785	0.106132	-1.124822	-0.023846	-51.931425	-75.810774	-129.811782	39.979149811	116.338930003	47.131350
05333	6623474	18.785362	-0.687743	-2.157000	0.090313	-1.120215	-0.003153	-52.421486	-75.910315	-129.293088	39.979149815	116.338930018	47.128431
05334	6623499	18.905023	-0.873539	-2.177460	0.073101	-1.103034	0.014743	-52.919443	-76.005228	-128.769018	39.979149818	116.338930033	47.127208
05335	6623524	19.025876	-1.114438	-2.155525	0.062676	-1.065749	0.041236	-53.417607	-76.092794	-128.246481	39.979149822	116.338930048	47.126038
05336	6623549	18.982408	-1.410689	-2.031490	0.057761	-1.024945	0.058520	-53.909598	-76.173810	-127.731218	39.979149825	116.338930062	47.124922
05337	6623574	18.866150	-1.572055	-1.919094	0.063378	-0.965515	0.059828	-54.378809	-76.248649	-127.238755	39.979149828	116.338930076	47.123861
05338	6623599	18.764844	-1.783129	-1.752166	0.092348	-0.886581	0.049236	-54.807502	-76.317252	-126.783878	39.979149832	116.338930089	47.122851
05339	6623624	18.695004	-1.945234	-1.472080	0.138524	-0.806603	0.041485	-55.192515	-76.379425	-126.367272	39.979149835	116.338930102	47.121896
05340	6623649	18.586598	-2.055096	-1.164021	0.194202	-0.724457	0.035122	-55.530808	-76.435039	-125.990629	39.979149837	116.338930115	47.120993
05341	6623674	18.566488	-2.086532	-0.848871	0.260027	-0.631161	0.020848	-55.811770	-76.484325	-125.663341	39.979149840	116.338930128	47.126574
05342	6623699	18.550435	-2.096144	-0.499154	0.337851	-0.536880	0.009438	-56.033184	-76.527062	-125.385892	39.979149843	116.338930140	47.125783
05343	6623724	18.581079	-2.070319	-0.066800	0.424154	-0.431469	0.008592	-56.190957	-76.561266	-125.161214	39.979149846	116.338930153	47.125047
05344	6623749	18.532728	-2.135733	0.503436	0.506617	-0.331001	0.007582	-56.287287	-76.587477	-124.987589	39.979149848	116.338930165	47.124364
05345	6623774	18.584654	-2.198917	1.197394	0.604175	-0.235100	0.003368	-56.320693	-76.606523	-124.864302	39.979149851	116.338930177	47.123740
05346	6623799	18.643203	-2.280367	1.991067	0.701586	-0.159346	0.000304	-56.301349	-76.619912	-124.780903	39.979149853	116.338930188	47.123168
05347	6623824	18.586171	-2.264102	2.779619	0.791686	-0.095573	0.001210	-56.237482	-76.628135	-124.730008	39.979149856	116.338930200	47.122653
05348	6623849	18.399652	-2.201087	3.578913	0.857276	-0.051086	0.012803	-56.145805	-76.631448	-124.698041	39.979149858	116.338930212	47.122195
05349	6623874	18.118198	-2.141903	4.314366	0.884567	-0.007480	0.025737	-56.032730	-76.629753	-124.684048	39.979149860	116.338930224	47.125593
05350	6623899	17.770517	-2.113074	5.065622	0.891185	0.032979	0.047050	-55.905707	-76.622290	-124.683419	39.979149862	116.338930237	47.125247
05351	6623924	17.412930	-2.112133	5.913841	0.876132	0.075369	0.060022	-55.764184	-76.609881	-124.699912	39.979149864	116.338930249	47.124955
05352	6623949	17.050109	-1.826545	6.812276	0.834526	0.112699	0.079459	-55.616817	-76.592149	-124.728539	39.979149866	116.338930262	47.124713
05353	6623974	16.587138	-1.472582	8.157541	0.763944	0.127851	0.117783	-55.485301	-76.568645	-124.751267	39.979149868	116.338930275	47.124511
05354	6623999	16.115843	-1.220129	9.471813	0.653474	0.090504	0.173511	-55.407198	-76.541593	-124.735348	39.979149870	116.338930289	47.124366
05355	6624024	15.500809	-1.137813	10.276252	0.480397	0.017914	0.218581	-55.404964	-76.515131	-124.666905	39.979149871	116.338930303	47.124265
05356	6624049	14.995232	-1.043650	10.865311	0.253075	-0.062232	0.257638	-55.487695	-76.490563	-124.544563	39.979149873	116.338930317	47.124205
05357	6624074	14.491211	-1.086303	11.262558	0.007086	-0.148049	0.286369	-55.657079	-76.469485	-124.369324	39.979149874	116.338930333	47.127951
05358	6624099	13.957693	-1.116656	11.341981	-0.235464	-0.216441	0.294736	-55.897077	-76.452781	-124.157175	39.979149875	116.338930349	47.127969
05359	6624124	13.543145	-1.263075	11.164452	-0.439832	-0.263368	0.304146	-56.192029	-76.438482	-123.918599	39.979149877	116.338930366	47.128020
05360	6624149	13.151121	-1.459322	10.722214	-0.601861	-0.279550	0.292233	-56.513712	-76.426587	-123.676384	39.979149878	116.338930383	47.128102
05361	6624174	12.799879	-1.580341	10.015564	-0.692485	-0.258161	0.279532	-56.833149	-76.414210	-123.449823	39.979149879	116.338930401	47.128198
05362	6624199	12.605838	-1.691549	9.278413	-0.714751	-0.191563	0.263885	-57.117131	-76.398234	-123.263006	39.979149880	116.338930420	47.128333
05363	6624224	12.457188	-1.848285	8.537159	-0.679560	-0.107592	0.244147	-57.347434	-76.377929	-123.126218	39.979149881	116.338930439	47.128493
05364	6624249	12.366398	-2.014702	7.813132	-0.595184	0.001799	0.231951	-57.506817	-76.350551	-123.049959	39.979149882	116.338930459	47.128675
05365	6624274	12.282254	-2.174758	7.195514	-0.487812	0.105932	0.226231	-57.596822	-76.315822	-123.029259	39.979149883	116.338930478	47.129935
05366	6624299	12.046489	-2.348552	6.596338	-0.386570	0.219651	0.212897	-57.611546	-76.273974	-123.071117	39.979149884	116.338930499	47.130161
05367	6624324	11.791346	-2.493680	6.045123	-0.286657	0.322665	0.200066	-57.557224	-76.225765	-123.169333	39.979149884	116.338930520	47.130407
05368	6624349	11.503170	-2.559110	5.531440	-0.192679	0.424746	0.188191	-57.436190	-76.171097	-123.322403	39.979149885	116.338930541	47.130669
05369	6624374	11.276756	-2.504156	5.186900	-0.109684	0.515305	0.171849	-57.255102	-76.111305	-123.525122	39.979149886	116.338930562	47.130938
05370	6624399	11.089191	-2.587346	4.644011	-0.026563	0.593329	0.157273	-57.021451	-76.047027	-123.769782	39.979149887	116.338930584	47.131230
05371	6624424	10.851570	-2.516246	4.403289	0.026377	0.669707	0.144224	-56.741667	-75.978074	-124.054241	39.979149888	116.338930605	47.131534
05372	6624449	10.540804	-2.509672	4.142464	0.076340	0.709105	0.118665	-56.430697	-75.908715	-124.363555	39.979149889	116.338930628	47.131849
05373	6624474	10.198778	-2.444833	3.738146	0.109340	0.736065	0.095560	-56.098019	-75.839543	-124.690475	39.979149890	116.338930650	47.133160
05374	6624499	10.002688	-2.430971	3.367017	0.125082	0.764446	0.075968	-55.746812	-75.769943	-125.034281	39.979149891	116.338930672	47.133490
