PacketCounter	SampleTimeFine	Acc_X	Acc_Y	Acc_Z	Gyr_X	Gyr_Y	Gyr_Z	Roll	Pitch	Yaw
15728	3643715	9.540558	-0.462902	1.993292	-0.005299	0.006242	0.003460	-11.874777	-77.969709	155.456095
15729	3643740	9.573647	-0.462854	1.974728	0.000674	0.006120	0.000651	-11.872839	-77.969628	155.454207
15730	3643765	9.580566	-0.461411	1.966769	-0.004944	0.003737	0.002894	-11.873511	-77.969816	155.454164
15731	3643790	9.521380	-0.461395	1.954758	-0.002393	0.006124	0.000118	-11.871661	-77.969750	155.451916
15732	3643815	9.543372	-0.455958	1.973393	-0.006081	0.001979	0.000790	-11.871391	-77.970299	155.450700
15733	3643840	9.543429	-0.410580	1.976202	-0.001860	0.005375	0.001520	-11.870490	-77.970298	155.449501
15734	3643865	9.536517	-0.413393	1.984136	-0.004344	0.003579	0.004992	-11.872478	-77.970445	155.450891
15735	3643890	9.551702	-0.409150	1.969559	-0.004159	-0.004703	0.003096	-11.874337	-77.971810	155.452177
15736	3643915	9.546183	-0.424285	1.968171	-0.000231	0.000139	0.002044	-11.874309	-77.972580	155.452066
15737	3643940	9.548920	-0.429813	1.972134	-0.004409	-0.004210	-0.002109	-11.872712	-77.974028	155.449781
15738	3643965	9.562736	-0.418782	1.964203	-0.004190	-0.007476	0.001638	-11.874000	-77.975825	155.450479
15739	3643990	9.580628	-0.424271	1.958920	-0.005664	-0.011587	0.000304	-11.875191	-77.978236	155.450861
15740	3644015	9.587479	-0.428478	1.973500	-0.003634	-0.009087	-0.003363	-11.873367	-77.980459	155.448415
15741	3644040	9.604027	-0.427038	1.966866	-0.002316	-0.013119	0.001022	-11.874764	-77.983064	155.449497
15742	3644065	9.599874	-0.435312	1.965529	-0.007212	-0.012544	-0.003833	-11.873585	-77.985732	155.447230
15743	3644090	9.614980	-0.457356	1.973443	-0.007248	-0.016582	-0.000659	-11.875060	-77.988872	155.447671
15744	3644115	9.609472	-0.460094	1.972091	-0.003441	-0.011729	-0.000696	-11.875331	-77.991387	155.447393
15745	3644140	9.587445	-0.436730	1.980113	-0.007588	-0.012206	-0.002505	-11.875033	-77.993968	155.445971
15746	3644165	9.594283	-0.461519	1.984032	-0.001575	-0.013153	-0.001314	-11.874789	-77.996647	155.445485
15747	3644190	9.588777	-0.438184	2.001387	-0.003751	-0.014243	0.002220	-11.877338	-77.999374	155.447537
15748	3644215	9.583268	-0.440922	2.000041	-0.003131	-0.013690	0.001019	-11.878969	-78.002113	155.448692
15749	3644240	9.592914	-0.440911	1.994739	-0.008653	-0.010188	0.003448	-11.882470	-78.004236	155.450999
15750	3644265	9.605224	-0.452009	2.019956	0.001596	-0.010815	-0.006877	-11.877778	-78.006751	155.446430
15751	3644290	9.579071	-0.443767	2.023940	0.000496	-0.012051	-0.003964	-11.875336	-78.009354	155.444000
15752	3644315	9.588681	-0.446573	2.034554	0.001514	-0.010793	-0.001423	-11.874287	-78.011758	155.443096
15753	3644340	9.606621	-0.451968	2.014633	-0.000119	-0.009748	-0.004160	-11.871482	-78.014043	155.440205
15754	3644365	9.579051	-0.435586	2.034597	-0.000884	-0.009079	-0.002579	-11.869737	-78.016189	155.438285
15755	3644390	9.577715	-0.428650	2.022649	-0.003308	-0.008745	-0.001965	-11.868697	-78.018269	155.436732
15756	3644415	9.587333	-0.439661	2.023964	-0.001292	-0.010459	-0.000812	-11.868407	-78.020608	155.436191
15757	3644440	9.596962	-0.438309	2.030608	-0.003675	-0.007525	0.002216	-11.870012	-78.022394	155.437288
15758	3644465	9.595597	-0.441013	2.025299	-0.003865	-0.007406	0.002024	-11.871502	-78.024169	155.438239
15759	3644490	9.581804	-0.465727	2.014570	-0.004515	-0.004382	-0.000903	-11.870730	-78.025606	155.436784
15760	3644515	9.569400	-0.434200	2.033277	-0.000167	-0.006340	-0.003150	-11.868161	-78.027437	155.434077
15761	3644540	9.587339	-0.458845	2.006625	0.001810	-0.005671	-0.001362	-11.866358	-78.029069	155.432493
15762	3644565	9.599677	-0.452087	2.037199	-0.004099	0.001322	-0.000584	-11.864945	-78.029697	155.430442
15763	3644590	9.592762	-0.463093	2.038521	-0.001042	-0.002858	-0.001641	-11.862975	-78.030942	155.428270
15764	3644615	9.583254	-0.428598	2.008039	0.004238	0.000297	-0.003697	-11.858490	-78.031858	155.424248
15765	3644640	9.572251	-0.449136	1.990696	0.000596	-0.002371	-0.002576	-11.855598	-78.033063	155.421373
15766	3644665	9.602600	-0.438081	1.976151	0.005698	0.000817	-0.003426	-11.850970	-78.033845	155.417470
15767	3644690	9.584687	-0.428527	1.988112	-0.003995	-0.000367	-0.005849	-11.846291	-78.034865	155.412097
15768	3644715	9.583331	-0.424337	1.977510	-0.000390	0.000083	-0.001578	-11.843898	-78.035748	155.409535
15769	3644740	9.566772	-0.440840	1.984086	-0.004581	0.000933	-0.004587	-11.839957	-78.036549	155.404830
15770	3644765	9.580567	-0.443587	1.976090	-0.006865	0.006245	-0.000678	-11.838192	-78.036489	155.402014
15771	3644790	9.591596	-0.428502	1.978813	-0.000454	-0.001095	-0.003217	-11.834846	-78.037534	155.398522
15772	3644815	9.598529	-0.420148	1.966865	-0.001596	0.000167	-0.000246	-11.833495	-78.038366	155.396847
15773	3644840	9.586091	-0.432561	1.972164	-0.000253	-0.000417	-0.000685	-11.831701	-78.039241	155.394970
15774	3644865	9.598456	-0.433968	1.982807	-0.007237	-0.003204	-0.003590	-11.829372	-78.040592	155.391523
15775	3644890	9.594312	-0.439516	1.985428	-0.005241	-0.004938	-0.003825	-11.826840	-78.042193	155.388162
15776	3644915	9.605379	-0.431194	1.972172	-0.009993	-0.002223	-0.002404	-11.825594	-78.043423	155.385364
15777	3644940	9.575005	-0.458731	1.984042	-0.006910	-0.001132	0.002182	-11.826749	-78.044314	155.385528
15778	3644965	9.583250	-0.454676	1.997312	-0.008567	-0.003374	-0.002334	-11.825463	-78.045652	155.382953
15779	3644990	9.568067	-0.469801	1.998634	-0.013010	-0.001812	-0.004974	-11.822848	-78.046848	155.378369
15780	3645015	9.568102	-0.451922	1.997334	-0.008707	-0.009561	-0.001375	-11.823115	-78.049077	155.377304
15781	3645040	9.543228	-0.480861	2.014505	-0.002585	-0.006460	-0.002474	-11.821306	-78.050851	155.375071
15782	3645065	9.574837	-0.491913	2.033081	-0.007778	-0.005853	-0.004990	-11.818489	-78.052615	155.371046
15783	3645090	9.614791	-0.491943	2.025127	-0.002715	-0.008298	-0.006343	-11.814387	-78.054760	155.366450
15784	3645115	9.573484	-0.501502	2.019769	-0.012933	-0.007297	0.000300	-11.816056	-78.056622	155.366194
15785	3645140	9.573435	-0.512583	2.031702	-0.003555	-0.008734	-0.001211	-11.815535	-78.058679	155.365136
15786	3645165	9.550058	-0.489200	2.033079	-0.004646	0.000246	0.000107	-11.814800	-78.059437	155.363698
15787	3645190	9.574880	-0.479547	2.023819	-0.002883	-0.003089	-0.000320	-11.813991	-78.060676	155.362443
15788	3645215	9.563858	-0.478122	2.023830	-0.003910	-0.004104	-0.003502	-11.811404	-78.062201	155.359155
15791	3645240	9.570752	-0.461699	2.034518	-0.005116	-0.007999	-0.003444	-11.809523	-78.064220	155.356478
15792	3645265	9.563882	-0.458926	2.026552	-0.006205	-0.001192	-0.005805	-11.805287	-78.065353	155.351234
15793	3645290	9.592767	-0.478169	2.027831	-0.005047	-0.004415	-0.003317	-11.802982	-78.066866	155.348133
15794	3645315	9.574930	-0.447898	2.019942	-0.008430	-0.003555	-0.001888	-11.802036	-78.068266	155.345857
15795	3645340	9.596979	-0.451991	2.014625	-0.003801	-0.003286	-0.004514	-11.798601	-78.069655	155.341784
15796	3645365	9.591392	-0.476796	2.029154	-0.006564	-0.006899	-0.006816	-11.794533	-78.071618	155.336659
15797	3645390	9.587302	-0.460272	2.023889	-0.008288	-0.001942	-0.004804	-11.791359	-78.072827	155.332196
15798	3645415	9.602452	-0.453404	2.026598	-0.007567	0.000745	-0.004804	-11.787756	-78.073710	155.327329
15799	3645440	9.606621	-0.457484	2.013278	-0.007446	0.002797	-0.008480	-11.781363	-78.074362	155.319699
15800	3645465	9.602496	-0.469833	2.001281	-0.010169	0.002638	-0.006664	-11.776588	-78.074983	155.313323
15801	3645490	9.606613	-0.449256	2.021267	-0.009380	0.001103	-0.006588	-11.771961	-78.075817	155.307216
15802	3645515	9.594262	-0.475262	1.985316	-0.009838	0.000350	-0.001708	-11.770793	-78.076664	155.304502
15803	3645540	9.566705	-0.469766	1.993304	-0.007886	-0.000174	-0.006269	-11.766340	-78.077667	155.298790
15804	3645565	9.579102	-0.465662	1.993316	-0.009973	0.003965	-0.003490	-11.763458	-78.078009	155.294379
15805	3645590	9.595693	-0.447708	1.978756	-0.013742	0.000261	-0.003386	-11.761698	-78.078867	155.290563
15806	3645615	9.542060	-0.455847	1.946840	-0.005357	0.003025	-0.001872	-11.759409	-78.079344	155.287356
15807	3645640	9.539331	-0.439328	1.944213	0.000198	0.005423	-0.003475	-11.754878	-78.079481	155.282749
15808	3645665	9.557254	-0.439289	1.934934	-0.002445	0.009139	0.000748	-11.753017	-78.078973	155.280483
15809	3645690	9.539341	-0.455804	1.930887	-0.001307	0.011101	-0.004193	-11.747440	-78.078334	155.274586
15810	3645715	9.544820	-0.444829	1.946877	0.004858	0.012651	-0.003067	-11.741566	-78.077495	155.269208
15811	3645740	9.529666	-0.461325	1.942801	0.003232	0.016828	-0.006062	-11.733309	-78.076108	155.261237
15812	3645765	9.544779	-0.451797	1.961445	0.002988	0.015780	-0.007397	-11.724347	-78.074906	155.252509
15813	3645790	9.547500	-0.455936	1.970737	-0.001031	0.014931	-0.009014	-11.715005	-78.073870	155.242804
15814	3645815	9.543310	-0.454661	1.994651	-0.001226	0.010994	-0.003050	-11.710246	-78.073262	155.237673
15815	3645840	9.555613	-0.472660	2.025138	0.001982	0.004289	-0.006506	-11.703605	-78.073645	155.231170
15816	3645865	9.545882	-0.467271	2.062377	-0.008261	0.001633	-0.009249	-11.696974	-78.074480	155.223177
15817	3645890	9.552748	-0.442646	2.087692	-0.005521	-0.006403	-0.003386	-11.694949	-78.076272	155.220293
15818	3645915	9.566482	-0.445425	2.098333	-0.002107	-0.008468	0.003497	-11.697342	-78.078204	155.222341
15819	3645940	9.578879	-0.442683	2.102310	-0.000975	-0.014316	-0.009744	-11.691527	-78.081290	155.216250
15820	3645965	9.602327	-0.453607	2.078378	-0.004759	-0.022168	-0.005648	-11.690055	-78.085359	155.214042
15821	3645990	9.589965	-0.456309	2.065117	0.001107	-0.022364	-0.005285	-11.688008	-78.089445	155.212107
15822	3646015	9.578995	-0.461726	2.045119	0.000873	-0.016427	-0.005862	-11.684846	-78.092764	155.208911
15823	3646040	9.576224	-0.467217	2.039851	0.003898	-0.014512	-0.006160	-11.680734	-78.095773	155.205274
15824	3646065	9.591488	-0.446450	2.009341	0.002341	-0.011311	-0.009976	-11.673864	-78.098445	155.198589
15825	3646090	9.603906	-0.461541	1.992012	-0.001822	-0.000826	-0.006467	-11.668481	-78.099543	155.192816
15826	3646115	9.580553	-0.443590	1.977462	-0.005253	0.007741	-0.003076	-11.664723	-78.099391	155.188112
15827	3646140	9.591633	-0.440763	1.956216	-0.007275	0.011566	-0.008042	-11.657370	-78.098796	155.179527
15828	3646165	9.570837	-0.450577	2.004000	-0.000486	0.019684	-0.003433	-11.650998	-78.096930	155.172938
15829	3646190	9.587355	-0.469810	2.001254	0.005139	0.021963	-0.004846	-11.642571	-78.094784	155.165072
15830	3646215	9.601130	-0.460179	1.998645	0.003769	0.021172	-0.002570	-11.636019	-78.092732	155.158831
15831	3646240	9.568188	-0.446313	1.965458	0.007199	0.024192	-0.005086	-11.626837	-78.090280	155.150496
15832	3646265	9.543445	-0.455822	1.938848	0.008118	0.021449	-0.000192	-11.621157	-78.088071	155.145873
15833	3646290	9.544869	-0.470847	1.917521	0.015031	0.032574	-0.003953	-11.610468	-78.084410	155.137143
15834	3646315	9.555824	-0.476442	1.934803	0.007629	0.032577	-0.004581	-11.600483	-78.080814	155.127955
15835	3646340	9.553087	-0.466806	1.934833	0.008854	0.032598	-0.003177	-11.591202	-78.077127	155.119760
15836	3646365	9.528274	-0.502520	1.922717	0.004579	0.029938	-0.001626	-11.583932	-78.073768	155.112994
15837	3646390	9.536565	-0.464029	1.933505	-0.000258	0.030698	-0.006488	-11.574026	-78.070442	155.102826
15838	3646415	9.525491	-0.472359	1.952027	0.003719	0.022726	-0.004859	-11.565778	-78.068236	155.094836
15839	3646440	9.548877	-0.464185	1.965387	0.012027	0.018518	-0.003394	-11.557830	-78.066529	155.088467
15840	3646465	9.553005	-0.432640	1.988051	0.001031	0.012246	-0.004806	-11.551373	-78.065743	155.082012
15841	3646490	9.569455	-0.461553	2.005254	0.001496	-0.002162	-0.001813	-11.548791	-78.066894	155.079587
15842	3646515	9.559786	-0.435534	2.029246	0.001006	-0.015557	-0.003579	-11.546983	-78.070023	155.077779
15843	3646540	9.570736	-0.428753	2.059842	-0.001106	-0.019814	-0.005811	-11.544512	-78.073765	155.075085
15844	3646565	9.561026	-0.446744	2.079705	-0.002128	-0.031994	0.000151	-11.547803	-78.079045	155.078131
15845	3646590	9.563785	-0.428882	2.089065	-0.004038	-0.045709	0.002307	-11.554669	-78.086189	155.084552
15846	3646615	9.589969	-0.401396	2.094522	-0.004363	-0.044326	-0.003406	-11.557657	-78.093350	155.086860
15847	3646640	9.605156	-0.404104	2.079897	-0.004023	-0.046593	-0.005113	-11.559714	-78.100830	155.088367
15848	3646665	9.610688	-0.409558	2.067900	-0.001702	-0.047530	-0.003639	-11.562550	-78.108399	155.091011
15849	3646690	9.603810	-0.420519	2.054583	0.000028	-0.050750	-0.000770	-11.567495	-78.116338	155.096062
15850	3646715	9.621762	-0.403984	2.042726	-0.004452	-0.041653	-0.000298	-11.572218	-78.123034	155.100130
15851	3646740	9.632790	-0.432789	2.022691	0.003675	-0.034244	-0.004236	-11.572082	-78.128756	155.100522
15852	3646765	9.642500	-0.420329	2.002795	0.000243	-0.023153	-0.003137	-11.571655	-78.132890	155.100116
15853	3646790	9.647942	-0.465703	2.005307	-0.001480	-0.014421	-0.000805	-11.571838	-78.135732	155.100081
15854	3646815	9.614836	-0.485005	2.009238	0.004894	-0.012572	-0.004753	-11.568276	-78.138475	155.097048
15855	3646840	9.616242	-0.508276	1.986550	-0.000727	-0.000603	-0.004807	-11.563786	-78.139492	155.092348
15856	3646865	9.602328	-0.534541	2.030332	0.002669	0.006913	-0.002381	-11.559403	-78.139385	155.088254
15857	3646890	9.583035	-0.542829	2.028946	-0.004591	0.005077	-0.005667	-11.554115	-78.139630	155.082172
15858	3646915	9.570605	-0.542875	2.044852	0.007842	0.010149	-0.003165	-11.548087	-78.139138	155.077044
15859	3646940	9.599594	-0.523536	2.028990	0.009318	0.011905	-0.005564	-11.539944	-78.138422	155.070081
15860	3646965	9.561025	-0.541405	2.020953	0.014803	0.011438	-0.006030	-11.530767	-78.137784	155.062865
15861	3646990	9.579039	-0.493240	2.006498	0.016083	0.009841	-0.001642	-11.524559	-78.137245	155.058869
15862	3647015	9.569462	-0.494464	1.981251	0.012732	0.004230	-0.001219	-11.519942	-78.137526	155.055892
15863	3647040	9.555783	-0.471039	1.957390	0.014853	0.003542	-0.007801	-11.510652	-78.138047	155.048567
15864	3647065	9.576514	-0.447596	1.940197	0.008696	-0.002886	-0.002137	-11.506902	-78.139308	155.046003
15865	3647090	9.554476	-0.444847	1.942860	0.009699	-0.006050	0.003903	-11.507476	-78.140840	155.048003
15866	3647115	9.549061	-0.455662	1.897658	0.007810	-0.009234	0.000782	-11.506735	-78.142955	155.048263
15867	3647140	9.572573	-0.437678	1.868489	0.012918	-0.010802	-0.000890	-11.504290	-78.145291	155.047650
15868	3647165	9.546437	-0.417052	1.869891	0.001556	-0.019236	0.002646	-11.506986	-78.148710	155.050627
15869	3647190	9.549244	-0.405984	1.853959	0.006154	-0.019355	0.003633	-11.509702	-78.152117	155.054296
15870	3647215	9.536850	-0.396401	1.864619	0.001153	-0.025965	0.002263	-11.513187	-78.156538	155.057898
15871	3647240	9.553369	-0.404627	1.857964	0.000240	-0.031154	-0.002879	-11.514003	-78.161788	155.058761
15872	3647265	9.560254	-0.382656	1.870023	-0.001006	-0.031503	-0.000662	-11.516531	-78.167023	155.061192
15873	3647290	9.572577	-0.395161	1.899166	-0.006714	-0.039983	0.000632	-11.521905	-78.173411	155.065693
15874	3647315	9.557445	-0.371762	1.899282	-0.006802	-0.042821	-0.000700	-11.526859	-78.180283	155.069632
15875	3647340	9.571158	-0.373262	1.921850	-0.008292	-0.050989	-0.004132	-11.530780	-78.188352	155.072418
15876	3647365	9.583497	-0.381591	1.941753	-0.011458	-0.051214	-0.002632	-11.536197	-78.196410	155.076270
15877	3647390	9.576621	-0.377448	1.943100	-0.014047	-0.057659	0.002302	-11.546191	-78.205231	155.084419
15878	3647415	9.602687	-0.363841	1.983052	-0.017412	-0.054459	0.002021	-11.556120	-78.213657	155.091887
15879	3647440	9.642611	-0.377590	1.983042	-0.016454	-0.057566	0.003617	-11.567358	-78.222427	155.100954
15880	3647465	9.636983	-0.398383	2.018802	-0.014898	-0.059354	-0.004297	-11.573304	-78.231674	155.104843
15881	3647490	9.663158	-0.416235	2.009452	-0.022824	-0.059198	0.001033	-11.583966	-78.240746	155.112387
15882	3647515	9.668637	-0.405275	2.021485	-0.021924	-0.056796	-0.000741	-11.593051	-78.249579	155.118334
15883	3647540	9.668551	-0.428734	2.045308	-0.030717	-0.054459	-0.003223	-11.601340	-78.258108	155.122301
15884	3647565	9.668481	-0.449431	2.059850	-0.037301	-0.059658	-0.001048	-11.612773	-78.267304	155.128515
15885	3647590	9.700171	-0.459016	2.051874	-0.036515	-0.057094	-0.000788	-11.623926	-78.276133	155.134558
15886	3647615	9.702922	-0.460375	2.049228	-0.043276	-0.054722	0.003217	-11.638508	-78.284559	155.142992
15887	3647640	9.713895	-0.474201	2.063758	-0.046277	-0.051668	0.001796	-11.652079	-78.292551	155.150077
15888	3647665	9.731740	-0.497578	2.067733	-0.047839	-0.047515	0.005397	-11.667748	-78.299855	155.159075
15889	3647690	9.738692	-0.487874	2.046480	-0.046511	-0.045469	0.001344	-11.680208	-78.306990	155.164989
15890	3647715	9.734605	-0.504330	2.025162	-0.049062	-0.043084	0.006208	-11.696078	-78.313695	155.173888
15893	3647740	9.742801	-0.531844	2.030378	-0.056052	-0.039585	0.000885	-11.708790	-78.320017	155.178665
15894	3647765	9.753882	-0.529018	2.010484	-0.058506	-0.040706	0.002392	-11.723044	-78.326452	155.184656
15895	3647790	9.760769	-0.550973	1.997131	-0.056903	-0.037371	0.002973	-11.737004	-78.332403	155.190582
15896	3647815	9.778725	-0.559129	1.969186	-0.060700	-0.031810	0.002557	-11.750523	-78.337630	155.195369
15897	3647840	9.771838	-0.565990	1.970497	-0.065774	-0.028636	0.004479	-11.765561	-78.342311	155.201098
15898	3647865	9.770489	-0.541243	1.969250	-0.060889	-0.032136	0.002111	-11.778793	-78.347552	155.205698
15899	3647890	9.769165	-0.545296	1.944009	-0.069678	-0.033893	0.007372	-11.797120	-78.352884	155.214214
15900	3647915	9.773364	-0.538326	1.925407	-0.064366	-0.035180	0.007413	-11.814988	-78.358441	155.222897
15901	3647940	9.770613	-0.556162	1.912044	-0.062138	-0.040543	0.004201	-11.831049	-78.364798	155.230201
15902	3647965	9.789804	-0.591976	1.927889	-0.068562	-0.045004	0.004537	-11.848909	-78.371771	155.238404
15903	3647990	9.784287	-0.596120	1.929211	-0.058909	-0.043234	0.004166	-11.864895	-78.378505	155.246104
15904	3648015	9.791230	-0.620714	1.886632	-0.056882	-0.047821	0.001460	-11.879500	-78.386007	155.252539
15905	3648040	9.794033	-0.620639	1.872007	-0.062095	-0.050239	0.005670	-11.898003	-78.393678	155.262342
15906	3648065	9.778846	-0.642659	1.869291	-0.058801	-0.057571	0.003543	-11.915657	-78.402439	155.271760
15907	3648090	9.806337	-0.683905	1.869169	-0.053421	-0.058776	0.004478	-11.933372	-78.411341	155.282027
15908	3648115	9.798082	-0.683886	1.865142	-0.048895	-0.060369	0.001404	-11.948678	-78.420602	155.290329
15909	3648140	9.824216	-0.720962	1.853099	-0.048865	-0.068048	-0.002712	-11.962205	-78.431015	155.296986
15910	3648165	9.824145	-0.755377	1.863616	-0.044803	-0.068939	-0.006483	-11.972714	-78.441665	155.301156
15911	3648190	9.858630	-0.760787	1.838366	-0.044702	-0.068322	-0.007942	-11.982131	-78.452271	155.304227
15912	3648215	9.839327	-0.777323	1.839616	-0.038381	-0.073864	-0.009981	-11.990162	-78.463760	155.306619
15913	3648240	9.804976	-0.784059	1.801073	-0.036022	-0.074998	-0.004508	-12.001692	-78.475200	155.313114
15914	3648265	9.815945	-0.822531	1.796953	-0.034103	-0.075510	-0.004430	-12.013093	-78.486708	155.319758
15915	3648290	9.832454	-0.822604	1.806264	-0.038910	-0.072506	-0.009100	-12.021545	-78.497935	155.322690
15916	3648315	9.817237	-0.867958	1.806119	-0.028947	-0.074400	-0.010541	-12.027977	-78.509516	155.324805
15917	3648340	9.820006	-0.848724	1.811482	-0.025068	-0.073433	-0.009879	-12.034065	-78.520896	155.327347
15918	3648365	9.842009	-0.877591	1.807453	-0.022618	-0.068606	-0.011767	-12.037795	-78.531656	155.327841
15919	3648390	9.822696	-0.903724	1.805969	-0.020006	-0.069404	-0.013521	-12.040061	-78.542580	155.327223
15920	3648415	9.789666	-0.917408	1.785989	-0.015515	-0.071466	-0.013803	-12.041919	-78.553848	155.326605
15921	3648440	9.750996	-0.938131	1.820467	-0.018519	-0.073199	-0.018460	-12.041115	-78.565451	155.323072
15922	3648465	9.735874	-0.920273	1.817834	-0.011341	-0.075842	-0.019163	-12.039181	-78.577446	155.319435
15923	3648490	9.746907	-0.906493	1.821876	-0.012942	-0.077516	-0.015940	-12.039955	-78.589579	155.318327
15924	3648515	9.698612	-0.951960	1.832322	-0.004219	-0.081916	-0.018278	-12.038647	-78.602444	155.316098
15925	3648540	9.713736	-0.924534	1.861635	-0.001690	-0.081104	-0.019400	-12.035930	-78.615182	155.313075
15926	3648565	9.695849	-0.910774	1.859033	-0.002018	-0.085430	-0.021809	-12.032218	-78.628599	155.308988
15927	3648590	9.711078	-0.890101	1.841830	0.002269	-0.089698	-0.020570	-12.029382	-78.642577	155.306420
15928	3648615	9.676678	-0.898238	1.824523	0.005411	-0.096019	-0.023457	-12.025168	-78.657572	155.302604
15929	3648640	9.657405	-0.883158	1.829866	0.009875	-0.101379	-0.026149	-12.019063	-78.673352	155.297815
15930	3648665	9.665625	-0.895549	1.840449	0.008224	-0.104347	-0.024000	-12.015128	-78.689484	155.294998
15931	3648690	9.667037	-0.881802	1.832519	0.007391	-0.109832	-0.035167	-12.004288	-78.706718	155.285016
15932	3648715	9.638191	-0.851454	1.819331	0.015974	-0.120082	-0.035410	-11.993715	-78.725440	155.276231
15933	3648740	9.610641	-0.863851	1.817947	0.011745	-0.114699	-0.034940	-11.983072	-78.743348	155.267089
15934	3648765	9.612034	-0.862437	1.812627	0.018489	-0.117117	-0.033745	-11.972635	-78.761558	155.259143
15935	3648790	9.601070	-0.823903	1.807443	0.014050	-0.119115	-0.035110	-11.962140	-78.780089	155.250489
15936	3648815	9.585921	-0.859619	1.791378	0.021386	-0.125143	-0.031242	-11.954386	-78.799395	155.245344
15937	3648840	9.555668	-0.825239	1.792789	0.018367	-0.131328	-0.038430	-11.942691	-78.819736	155.236098
15938	3648865	9.563895	-0.822557	1.806099	0.017177	-0.134528	-0.042561	-11.928674	-78.840647	155.224312
15939	3648890	9.540503	-0.832079	1.795446	0.021197	-0.132400	-0.045133	-11.911883	-78.861335	155.210286
15940	3648915	9.537808	-0.815561	1.783499	0.021337	-0.136609	-0.044304	-11.896435	-78.882633	155.197268
15941	3648940	9.521296	-0.788066	1.788928	0.024614	-0.135580	-0.039648	-11.883439	-78.903603	155.187611
15942	3648965	9.536373	-0.792306	1.818139	0.026119	-0.135636	-0.043060	-11.867749	-78.924682	155.175429
15943	3648990	9.536399	-0.779910	1.815517	0.030574	-0.143923	-0.045049	-11.851188	-78.946980	155.163011
15944	3649015	9.529602	-0.789392	1.772968	0.024460	-0.137798	-0.046499	-11.833690	-78.968506	155.148340
15945	3649040	9.482848	-0.797489	1.738376	0.012079	-0.138734	-0.049834	-11.815433	-78.990216	155.131497
15946	3649065	9.496578	-0.800331	1.752976	0.010064	-0.136103	-0.049216	-11.797445	-79.011537	155.114635
15947	3649090	9.482839	-0.807120	1.734348	0.007115	-0.131695	-0.049816	-11.778713	-79.032257	155.096587
15948	3649115	9.464877	-0.798964	1.767597	0.004654	-0.130118	-0.051548	-11.758995	-79.052850	155.076744
15949	3649140	9.468999	-0.823694	1.754220	0.006731	-0.123808	-0.056677	-11.734004	-79.072661	155.052266
15950	3649165	9.456615	-0.837379	1.743537	0.007594	-0.126784	-0.058635	-11.707823	-79.092945	155.026704
15951	3649190	9.449672	-0.880031	1.739406	0.014965	-0.125560	-0.065556	-11.675256	-79.113256	154.995717
15952	3649215	9.408304	-0.922625	1.735280	0.013936	-0.127245	-0.062901	-11.645152	-79.133767	154.966628
15953	3649240	9.420740	-0.939043	1.711273	0.011024	-0.127183	-0.067174	-11.611977	-79.154345	154.934450
15954	3649265	9.394522	-0.956951	1.721866	0.012374	-0.117427	-0.068885	-11.575762	-79.173601	154.899376
15955	3649290	9.412364	-0.944699	1.751113	0.020257	-0.125627	-0.073130	-11.536400	-79.194124	154.862250
15956	3649315	9.401334	-0.973538	1.739080	0.018889	-0.122571	-0.070225	-11.499029	-79.214175	154.826459
15957	3649340	9.386141	-1.031245	1.726905	0.020465	-0.125377	-0.077379	-11.456178	-79.234774	154.785817
15958	3649365	9.349022	-1.022913	1.702990	0.020193	-0.126530	-0.081317	-11.410465	-79.255642	154.742224
15959	3649390	9.340727	-1.018839	1.721604	0.022167	-0.126882	-0.075147	-11.368923	-79.276378	154.703168
15960	3649415	9.336582	-1.031184	1.717585	0.028497	-0.131354	-0.074461	-11.327771	-79.297762	154.664900
15961	3649440	9.340727	-1.053125	1.698896	0.034568	-0.130275	-0.070289	-11.288260	-79.318828	154.629723
15962	3649465	9.315962	-1.058576	1.686931	0.035752	-0.129993	-0.072564	-11.246691	-79.339913	154.592629
15963	3649490	9.332589	-1.065302	1.645713	0.043555	-0.125645	-0.067939	-11.206664	-79.360254	154.558242
15964	3649515	9.332656	-1.074792	1.607155	0.044845	-0.132427	-0.071856	-11.164678	-79.381695	154.521475
15965	3649540	9.334119	-1.012938	1.608694	0.046082	-0.136274	-0.076474	-11.119155	-79.403757	154.481870
15966	3649565	9.317645	-1.003229	1.594091	0.048749	-0.133643	-0.079691	-11.070262	-79.425531	154.439229
15967	3649590	9.323253	-0.972881	1.568978	0.052090	-0.137962	-0.077504	-11.022988	-79.447845	154.398724
15968	3649615	9.320577	-0.934361	1.562459	0.059284	-0.129730	-0.069970	-10.979309	-79.468834	154.362311
15969	3649640	9.298655	-0.888893	1.546625	0.049357	-0.132602	-0.066365	-10.939727	-79.490081	154.329237
15970	3649665	9.302849	-0.854500	1.537453	0.045602	-0.129868	-0.067666	-10.899148	-79.510974	154.294605
15971	3649690	9.308365	-0.873688	1.525446	0.042802	-0.130910	-0.069085	-10.857893	-79.532047	154.258879
15972	3649715	9.309821	-0.843361	1.509586	0.034006	-0.122686	-0.067510	-10.818089	-79.551960	154.222701
15973	3649740	9.300177	-0.813175	1.528298	0.033647	-0.128612	-0.062114	-10.782839	-79.572514	154.191753
15974	3649765	9.324900	-0.780360	1.574918	0.032735	-0.129376	-0.066179	-10.744586	-79.593281	154.157620
15975	3649790	9.366173	-0.810616	1.577502	0.034551	-0.130311	-0.064577	-10.707294	-79.614132	154.124732
15976	3649815	9.377239	-0.809203	1.560212	0.025360	-0.141962	-0.066097	-10.672057	-79.636705	154.091919
15977	3649840	9.393717	-0.796897	1.582851	0.019394	-0.142099	-0.071284	-10.633188	-79.659385	154.055226
15978	3649865	9.388297	-0.795393	1.548330	0.019334	-0.145526	-0.069569	-10.595985	-79.682499	154.020219
15979	3649890	9.370386	-0.741861	1.583013	0.011775	-0.152351	-0.072986	-10.558041	-79.706659	153.983361
15980	3649915	9.373104	-0.791335	1.568254	0.005160	-0.157459	-0.072905	-10.522045	-79.731577	153.946819
15981	3649940	9.368812	-0.871166	1.585256	0.001115	-0.163536	-0.073443	-10.486537	-79.757317	153.910891
15982	3649965	9.333082	-0.836749	1.576056	-0.008997	-0.166070	-0.076567	-10.450224	-79.783490	153.872676
15983	3649990	9.294526	-0.790088	1.598781	-0.013584	-0.171295	-0.079453	-10.412869	-79.810470	153.832737
15984	3650015	9.253123	-0.857416	1.595872	-0.018173	-0.169502	-0.075561	-10.379162	-79.837137	153.795106
15985	3650040	9.259904	-0.938575	1.592924	-0.012940	-0.177240	-0.075006	-10.345674	-79.864832	153.759197
15986	3650065	9.247416	-0.986723	1.603388	-0.023426	-0.180665	-0.078005	-10.311623	-79.893082	153.721193
15987	3650090	9.211584	-1.032045	1.587274	-0.029446	-0.182882	-0.085095	-10.272931	-79.921822	153.677602
15988	3650115	9.159374	-0.933060	1.588911	-0.028695	-0.189668	-0.085402	-10.235045	-79.951566	153.634170
15989	3650140	9.139966	-1.001861	1.605921	-0.030635	-0.192915	-0.080340	-10.201284	-79.981590	153.595422
15990	3650165	9.127357	-1.118797	1.620182	-0.032954	-0.196858	-0.083146	-10.165958	-80.012236	153.554751
15991	3650190	9.097031	-1.160006	1.609380	-0.029148	-0.205372	-0.087109	-10.127890	-80.044179	153.511855
15992	3650215	9.059754	-1.205433	1.618529	-0.024019	-0.213118	-0.091060	-10.087201	-80.077351	153.466224
15995	3650240	8.996405	-1.265792	1.581072	-0.020409	-0.214031	-0.087546	-10.048231	-80.110516	153.423691
15996	3650265	8.935660	-1.316790	1.610085	-0.009219	-0.222518	-0.093101	-10.004088	-80.145010	153.377538
15997	3650290	8.908050	-1.323727	1.636633	0.010149	-0.230958	-0.095293	-9.956270	-80.180744	153.330476
15998	3650315	8.870747	-1.363728	1.660380	0.027336	-0.242020	-0.097746	-9.905700	-80.218134	153.282242
15999	3650340	8.826750	-1.286727	1.671261	0.037631	-0.255084	-0.097658	-9.854728	-80.257316	153.235984
16000	3650365	8.839172	-1.312804	1.649903	0.053175	-0.266984	-0.092578	-9.807024	-80.298047	153.195307
16001	3650390	8.829419	-1.374673	1.660309	0.056511	-0.279045	-0.098568	-9.755223	-80.340619	153.150964
16002	3650415	8.807350	-1.403590	1.656230	0.059985	-0.292623	-0.099482	-9.704202	-80.385166	153.106976
16003	3650440	8.781102	-1.383097	1.702788	0.072582	-0.305021	-0.097661	-9.653697	-80.431371	153.066293
16004	3650465	8.800509	-1.267665	1.721776	0.095214	-0.317676	-0.107618	-9.592920	-80.479595	153.018487
16005	3650490	8.806015	-1.267651	1.719137	0.109746	-0.332944	-0.101146	-9.537157	-80.529814	152.977882
16006	3650515	8.857020	-1.273066	1.697879	0.119630	-0.346249	-0.104609	-9.478979	-80.582027	152.935266
16007	3650540	8.916298	-1.253806	1.683384	0.121367	-0.356728	-0.108203	-9.417834	-80.635759	152.890905
16008	3650565	8.972894	-1.224793	1.647629	0.125456	-0.363459	-0.104928	-9.359275	-80.690358	152.849765
16009	3650590	9.006014	-1.201349	1.633134	0.118639	-0.371982	-0.106619	-9.300854	-80.746194	152.807782
16010	3650615	9.090218	-1.114648	1.608209	0.126347	-0.369217	-0.101483	-9.245425	-80.801551	152.768899
16011	3650640	9.131612	-1.113149	1.575040	0.115885	-0.368288	-0.100356	-9.191174	-80.856708	152.730754
16012	3650665	9.186744	-1.122678	1.552440	0.107506	-0.367083	-0.093825	-9.143170	-80.911539	152.697725
16013	3650690	9.243154	-1.162593	1.545728	0.095318	-0.353451	-0.090440	-9.097495	-80.964362	152.665293
16014	3650715	9.262553	-1.141844	1.515216	0.083295	-0.346431	-0.088452	-9.054528	-81.016180	152.632755
16015	3650740	9.331518	-1.082655	1.500875	0.067002	-0.338414	-0.084580	-9.015145	-81.066736	152.602596
16016	3650765	9.367317	-1.085449	1.508839	0.052206	-0.322124	-0.083186	-8.976426	-81.114952	152.570967
16017	3650790	9.444504	-1.103193	1.470295	0.041427	-0.312068	-0.071222	-8.948318	-81.161476	152.548519
16018	3650815	9.517622	-1.028897	1.461276	0.024278	-0.294028	-0.072828	-8.919051	-81.205518	152.521259
16019	3650840	9.560521	-0.920209	1.440419	0.007813	-0.284916	-0.072452	-8.890197	-81.248224	152.493190
16020	3650865	9.612998	-0.855482	1.426053	-0.014192	-0.269113	-0.066040	-8.867870	-81.288549	152.468539
16021	3650890	9.646180	-0.803173	1.400996	-0.033063	-0.251810	-0.061634	-8.849625	-81.326327	152.445284
16022	3650915	9.756272	-0.833493	1.416890	-0.044906	-0.244105	-0.052972	-8.840593	-81.362860	152.428444
16023	3650940	9.825264	-0.811341	1.375858	-0.065915	-0.218931	-0.044468	-8.838027	-81.395605	152.416293
16024	3650965	9.886042	-0.750701	1.334892	-0.088176	-0.200856	-0.040022	-8.840136	-81.425694	152.405647
16025	3650990	10.000370	-0.804219	1.297568	-0.117561	-0.184716	-0.037408	-8.846531	-81.453441	152.395078
16026	3651015	10.062299	-0.885233	1.266796	-0.146280	-0.161038	-0.031053	-8.860324	-81.477734	152.386607
16027	3651040	10.093979	-0.911345	1.248087	-0.170159	-0.138509	-0.028022	-8.876330	-81.498736	152.378141
16028	3651065	10.124214	-0.953963	1.246681	-0.198101	-0.122432	-0.020896	-8.900740	-81.517304	152.374125
16029	3651090	10.172364	-0.960914	1.265228	-0.211586	-0.103308	-0.010104	-8.934535	-81.532927	152.377645
16030	3651115	10.198487	-0.980190	1.271849	-0.240673	-0.092921	-0.006850	-8.974913	-81.547046	152.382340
16031	3651140	10.260487	-0.973338	1.266585	-0.261109	-0.080398	0.006360	-9.028195	-81.559058	152.398389
16032	3651165	10.305915	-1.002170	1.257205	-0.294310	-0.069948	0.013198	-9.091269	-81.569435	152.419529
16033	3651190	10.308622	-0.981649	1.287851	-0.336084	-0.056586	0.021546	-9.166355	-81.577729	152.446762
16034	3651215	10.241081	-1.036595	1.279662	-0.371194	-0.048715	0.031285	-9.255496	-81.584719	152.481807
16035	3651240	10.242341	-1.084835	1.302082	-0.395751	-0.047456	0.032105	-9.348008	-81.591467	152.518016
16036	3651265	10.268414	-1.108287	1.320595	-0.425153	-0.047928	0.044054	-9.456343	-81.597991	152.565962
16037	3651290	10.300037	-1.156429	1.311164	-0.450204	-0.047703	0.052169	-9.576120	-81.604278	152.621845
16038	3651315	10.236672	-1.174228	1.312373	-0.480919	-0.047053	0.054652	-9.703572	-81.610434	152.679674
16039	3651340	10.198027	-1.204576	1.326904	-0.500473	-0.042170	0.058423	-9.835893	-81.615752	152.740957
16040	3651365	10.187041	-1.179841	1.329604	-0.528790	-0.041042	0.058962	-9.972721	-81.620876	152.802695
16041	3651390	10.178751	-1.210052	1.321542	-0.557432	-0.044820	0.064383	-10.119611	-81.626376	152.870455
16042	3651415	10.145782	-1.186575	1.305610	-0.583535	-0.046961	0.056566	-10.264170	-81.632387	152.930661
16043	3651440	10.144519	-1.110945	1.300576	-0.617099	-0.049312	0.062643	-10.419012	-81.638513	152.997819
16044	3651465	10.087980	-1.094584	1.343122	-0.643846	-0.048183	0.067253	-10.582068	-81.644333	153.069405
16045	3651490	10.032914	-1.043766	1.363175	-0.659080	-0.046127	0.070998	-10.750687	-81.649734	153.144407
16046	3651515	9.943365	-1.032849	1.381764	-0.670976	-0.057679	0.087595	-10.940157	-81.656315	153.237296
16047	3651540	9.874397	-1.087857	1.396159	-0.675741	-0.060564	0.091361	-11.133742	-81.663116	153.335116
16048	3651565	9.853664	-1.086612	1.424054	-0.690018	-0.068380	0.105464	-11.344636	-81.670572	153.448363
16049	3651590	9.857790	-1.086594	1.426705	-0.708556	-0.078537	0.108817	-11.563678	-81.679297	153.567157
16050	3651615	9.849529	-1.104427	1.414719	-0.719152	-0.076109	0.112093	-11.788227	-81.687554	153.688471
16051	3651640	9.837194	-1.052217	1.421476	-0.744107	-0.078985	0.109872	-12.014170	-81.696176	153.809088
16052	3651665	9.824979	-0.944896	1.412554	-0.757277	-0.080113	0.110525	-12.243219	-81.704866	153.930935
16053	3651690	9.805904	-0.885578	1.366228	-0.772259	-0.075261	0.112751	-12.475892	-81.712739	154.054274
16054	3651715	9.761814	-0.910291	1.359517	-0.794435	-0.073503	0.117135	-12.716915	-81.720189	154.181292
16055	3651740	9.746721	-0.899226	1.339579	-0.809929	-0.066823	0.129825	-12.970196	-81.726189	154.319998
16056	3651765	9.738495	-0.874456	1.338346	-0.830577	-0.053762	0.141069	-13.234575	-81.729911	154.466927
16057	3651790	9.731682	-0.818097	1.343847	-0.840286	-0.044656	0.141558	-13.498908	-81.732251	154.612405
16058	3651815	9.733084	-0.781012	1.355934	-0.848481	-0.035016	0.156073	-13.777207	-81.732691	154.769233
16059	3651840	9.729133	-0.714820	1.321583	-0.869228	-0.027107	0.153305	-14.052935	-81.731986	154.922036
16060	3651865	9.740241	-0.688636	1.300458	-0.891353	-0.019617	0.159912	-14.336285	-81.729902	155.079337
16061	3651890	9.769167	-0.677649	1.304476	-0.901380	-0.007126	0.160079	-14.618023	-81.725967	155.233561
16062	3651915	9.734814	-0.672040	1.275252	-0.919716	0.006381	0.159921	-14.899662	-81.720088	155.383439
16063	3651940	9.707430	-0.641613	1.230149	-0.947756	0.025968	0.162667	-15.181552	-81.711262	155.531108
16064	3651965	9.697831	-0.608569	1.231585	-0.966551	0.038119	0.165296	-15.464994	-81.700552	155.677628
16065	3651990	9.729568	-0.524804	1.259765	-0.972002	0.049038	0.167470	-15.747821	-81.688148	155.822742
16066	3652015	9.693578	-0.566239	1.310135	-0.970958	0.060003	0.169368	-16.029738	-81.674084	155.965488
16067	3652040	9.718362	-0.523711	1.332825	-0.970264	0.062814	0.173183	-16.312605	-81.659351	156.110904
16068	3652065	9.669990	-0.571996	1.383156	-0.973459	0.066756	0.179811	-16.600277	-81.643703	156.260720
16069	3652090	9.669797	-0.572267	1.454867	-0.967619	0.066493	0.175670	-16.882511	-81.628153	156.405891
16070	3652115	9.653318	-0.521434	1.466965	-0.954633	0.062649	0.180474	-17.168693	-81.612850	156.555329
16071	3652140	9.638105	-0.521563	1.497564	-0.961595	0.056008	0.180423	-17.455915	-81.598323	156.706425
16072	3652165	9.531743	-0.629047	1.560946	-0.951416	0.046143	0.180629	-17.744013	-81.585022	156.859886
16073	3652190	9.532991	-0.660792	1.592656	-0.942698	0.036758	0.182356	-18.034552	-81.572812	157.017083
16074	3652215	9.498476	-0.618345	1.649914	-0.923264	0.020492	0.170977	-18.317184	-81.563232	157.167489
16075	3652240	9.535658	-0.606043	1.660633	-0.904672	0.001703	0.161052	-18.592305	-81.556524	157.314613
16076	3652265	9.516477	-0.552344	1.650162	-0.894296	-0.017858	0.157979	-18.868880	-81.552507	157.464711
16077	3652290	9.459910	-0.553881	1.693952	-0.883390	-0.029153	0.136504	-19.127678	-81.550919	157.598417
16078	3652315	9.384041	-0.608950	1.713687	-0.861077	-0.048041	0.129205	-19.383626	-81.552160	157.730857
16079	3652340	9.335695	-0.643449	1.746771	-0.846458	-0.066689	0.124444	-19.638198	-81.556041	157.865640
16080	3652365	9.304090	-0.607655	1.741530	-0.833550	-0.078328	0.105524	-19.877726	-81.562321	157.987079
16081	3652390	9.213258	-0.526595	1.761669	-0.823610	-0.097013	0.097558	-20.115056	-81.571433	158.107735
16082	3652415	9.134619	-0.480095	1.846819	-0.804691	-0.108810	0.093780	-20.351628	-81.582259	158.228746
16083	3652440	9.112423	-0.468012	1.919915	-0.782423	-0.126213	0.091116	-20.587926	-81.595465	158.354316
16084	3652465	9.106785	-0.446289	1.989053	-0.759667	-0.152147	0.090998	-20.830355	-81.612075	158.489372
16085	3652490	9.117757	-0.423010	2.019736	-0.736311	-0.169149	0.089544	-21.074795	-81.630950	158.629836
16086	3652515	9.146474	-0.457669	2.080754	-0.711619	-0.186884	0.094008	-21.327933	-81.651884	158.781061
16087	3652540	9.164292	-0.503036	2.088626	-0.690802	-0.201932	0.090821	-21.580567	-81.674882	158.936380
16088	3652565	9.183591	-0.525000	2.065936	-0.670622	-0.209150	0.088578	-21.832017	-81.698861	159.093414
16089	3652590	9.255196	-0.581263	2.039253	-0.645247	-0.217308	0.088342	-22.083802	-81.723836	159.254451
16090	3652615	9.284220	-0.583871	1.992720	-0.607732	-0.213039	0.086354	-22.329068	-81.748256	159.412732
16091	3652640	9.343658	-0.486103	1.961247	-0.575490	-0.202052	0.083998	-22.563543	-81.771251	159.566353
16092	3652665	9.434837	-0.385522	1.905827	-0.556226	-0.191844	0.083575	-22.792027	-81.792830	159.716701
16093	3652690	9.532736	-0.370293	1.864765	-0.544046	-0.166696	0.097039	-23.022323	-81.810254	159.870636
16094	3652715	9.644347	-0.425091	1.806189	-0.536165	-0.132063	0.103420	-23.245572	-81.822671	160.017015
16097	3652740	9.779336	-0.466265	1.771615	-0.532189	-0.096272	0.117701	-23.466654	-81.829488	160.163347
16098	3652765	9.906071	-0.501896	1.734361	-0.522140	-0.060974	0.125690	-23.679771	-81.831135	160.303086
16099	3652790	10.020372	-0.474483	1.754454	-0.517623	-0.019576	0.138703	-23.887482	-81.826531	160.438016
16100	3652815	10.089127	-0.504836	1.773019	-0.501511	0.022696	0.160177	-24.096078	-81.815072	160.574619
16101	3652840	10.184063	-0.529684	1.802181	-0.488804	0.063628	0.168809	-24.292454	-81.797692	160.702277
16102	3652865	10.313479	-0.532538	1.816868	-0.484493	0.103943	0.178272	-24.479527	-81.774432	160.821164
16103	3652890	10.362793	-0.597383	1.880496	-0.491738	0.140934	0.178692	-24.651927	-81.746275	160.924186
16104	3652915	10.477470	-0.644980	1.698395	-0.494394	0.189753	0.183266	-24.808728	-81.711445	161.009522
16105	3652940	10.698240	-0.667607	1.509890	-0.497502	0.279407	0.185646	-24.929124	-81.664795	161.059172
16106	3652965	10.752030	-0.715518	1.452653	-0.510193	0.400449	0.186655	-25.001613	-81.602355	161.058568
16107	3652990	10.700822	-0.700790	1.566965	-0.519595	0.525397	0.175878	-25.014695	-81.524348	160.996547
16108	3653015	10.574997	-0.686482	1.792734	-0.552088	0.647029	0.176537	-24.985537	-81.430503	160.885550
16109	3653040	10.476607	-0.473393	2.173269	-0.585461	0.720333	0.177993	-24.933918	-81.327045	160.748515
16110	3653065	10.511935	-0.340964	2.428805	-0.626774	0.751640	0.184052	-24.883307	-81.219137	160.606475
16111	3653090	10.641216	-0.298778	2.528681	-0.658396	0.789489	0.204015	-24.841602	-81.105090	160.468821
16112	3653115	10.654653	-0.264948	2.681583	-0.690398	0.822363	0.229430	-24.816029	-80.985219	160.341308
16113	3653140	10.577219	-0.199605	2.857138	-0.730469	0.846564	0.247683	-24.803013	-80.861107	160.222162
16114	3653165	10.533839	-0.191035	3.152021	-0.769280	0.847416	0.262031	-24.808428	-80.736021	160.116013
16115	3653190	10.491968	-0.193300	3.387071	-0.812424	0.813020	0.267375	-24.838025	-80.615091	160.028071
16116	3653215	10.531599	-0.221128	3.476060	-0.849444	0.766212	0.272955	-24.895603	-80.499903	159.961640
16117	3653240	10.667845	-0.240518	3.510594	-0.877649	0.718257	0.278930	-24.978163	-80.390611	159.917874
16118	3653265	10.767021	-0.325607	3.437320	-0.900999	0.673132	0.270735	-25.073370	-80.287685	159.883528
16119	3653290	10.790223	-0.423386	3.490176	-0.932372	0.626154	0.265960	-25.185353	-80.191151	159.861636
16120	3653315	10.704232	-0.676780	3.587560	-0.952590	0.564270	0.254367	-25.313143	-80.103329	159.851445
16121	3653340	10.691576	-0.910480	3.558855	-0.962060	0.477791	0.237168	-25.458043	-80.027780	159.858642
16122	3653365	10.666583	-1.164602	3.483600	-0.931561	0.386503	0.218894	-25.615960	-79.965156	159.883494
16123	3653390	10.654450	-1.394700	3.237046	-0.884010	0.303380	0.192434	-25.775795	-79.914892	159.917217
16124	3653415	10.699024	-1.564100	2.921645	-0.830853	0.231114	0.165124	-25.933376	-79.875602	159.954994
16125	3653440	10.637634	-1.686694	2.606356	-0.798206	0.188150	0.145233	-26.085608	-79.843106	159.993487
16126	3653465	10.596914	-1.742060	2.324479	-0.789920	0.161991	0.134152	-26.237324	-79.814654	160.032666
16127	3653490	10.514672	-1.748336	2.162307	-0.800625	0.144209	0.145625	-26.404492	-79.787738	160.085988
16128	3653515	10.450168	-1.775435	2.051947	-0.831616	0.139512	0.165933	-26.592313	-79.760061	160.154359
16129	3653540	10.344360	-1.792877	1.948193	-0.868307	0.138986	0.190888	-26.801782	-79.730838	160.240827
16130	3653565	10.310074	-1.810536	1.884281	-0.913944	0.145313	0.211522	-27.029179	-79.699412	160.338881
16131	3653590	10.311582	-1.784187	1.844526	-0.960902	0.147523	0.226182	-27.271758	-79.666673	160.445539
16132	3653615	10.288223	-1.722368	1.860670	-1.010971	0.152022	0.231238	-27.523026	-79.632908	160.552270
16133	3653640	10.222228	-1.632996	1.870188	-1.081342	0.158127	0.236067	-27.783585	-79.598001	160.659691
16134	3653665	10.048889	-1.462474	1.893217	-1.162589	0.167407	0.234334	-28.049962	-79.561947	160.761208
16135	3653690	9.933418	-1.222008	1.952417	-1.227382	0.168341	0.231539	-28.322094	-79.525878	160.859151
16136	3653715	9.910052	-1.138217	1.981958	-1.291432	0.165808	0.227794	-28.601250	-79.490256	160.953417
16137	3653740	9.841146	-1.084787	2.037832	-1.348936	0.161414	0.232361	-28.891347	-79.454828	161.051945
16138	3653765	9.759836	-0.921516	2.149933	-1.377592	0.144510	0.245085	-29.199079	-79.420539	161.164248
16139	3653790	9.662009	-0.798089	2.244655	-1.384165	0.128310	0.255382	-29.519340	-79.387437	161.288352
16140	3653815	9.557147	-0.790145	2.336305	-1.389702	0.100164	0.259166	-29.852878	-79.357393	161.423682
16141	3653840	9.460513	-0.771257	2.443903	-1.389023	0.069095	0.260781	-30.197197	-79.330984	161.571582
16142	3653865	9.351461	-0.790824	2.534159	-1.390504	0.028792	0.260547	-30.555859	-79.309406	161.733874
16143	3653890	9.294793	-0.803451	2.609777	-1.381249	-0.016263	0.247014	-30.920830	-79.294176	161.903946
16144	3653915	9.244907	-0.873882	2.702523	-1.376662	-0.065957	0.215814	-31.284347	-79.287097	162.071752
16145	3653940	9.228069	-0.948490	2.781974	-1.381484	-0.123933	0.193054	-31.655801	-79.288654	162.248395
16146	3653965	9.248448	-0.970880	2.878891	-1.376516	-0.184777	0.175761	-32.039885	-79.298705	162.438613
16147	3653990	9.260649	-0.973909	2.957267	-1.359140	-0.256276	0.157562	-32.439367	-79.318568	162.647024
16148	3654015	9.251008	-0.945125	2.975946	-1.342923	-0.327912	0.138402	-32.855542	-79.348214	162.873339
16149	3654040	9.244289	-0.907822	2.928268	-1.312194	-0.395440	0.125502	-33.288419	-79.386723	163.122530
16150	3654065	9.241600	-0.959858	2.869666	-1.274166	-0.458017	0.118937	-33.740711	-79.432868	163.396980
16151	3654090	9.267919	-1.002183	2.781865	-1.243871	-0.512564	0.118078	-34.214867	-79.485152	163.698039
16152	3654115	9.284548	-1.023955	2.725997	-1.214231	-0.555153	0.109206	-34.702354	-79.542652	164.015522
16153	3654140	9.268063	-1.071927	2.679317	-1.188660	-0.594206	0.100938	-35.202198	-79.604984	164.350630
16154	3654165	9.203446	-1.044286	2.644847	-1.164617	-0.613576	0.087434	-35.703822	-79.670165	164.690979
16155	3654190	9.202004	-1.075928	2.654026	-1.143326	-0.633346	0.085022	-36.215367	-79.737297	165.044441
16156	3654215	9.166251	-1.008604	2.670162	-1.114032	-0.648408	0.081392	-36.733824	-79.805825	165.407744
16157	3654240	9.145629	-0.946767	2.685070	-1.098457	-0.654732	0.078911	-37.256818	-79.874778	165.779214
16158	3654265	9.201847	-0.980059	2.762052	-1.082430	-0.661724	0.074732	-37.784376	-79.944286	166.157571
16159	3654290	9.287053	-0.981771	2.837777	-1.064426	-0.671438	0.080155	-38.323954	-80.013790	166.550672
16160	3654315	9.329585	-0.984762	2.900255	-1.053538	-0.677838	0.080502	-38.872561	-80.083242	166.953110
16161	3654340	9.340500	-0.940986	2.966875	-1.019812	-0.682855	0.085466	-39.428168	-80.152213	167.368800
16162	3654365	9.440784	-0.963354	3.055884	-0.975129	-0.689236	0.093380	-39.992589	-80.220462	167.799845
16163	3654390	9.461149	-1.031026	3.138033	-0.914570	-0.689195	0.092910	-40.554919	-80.288025	168.237483
16164	3654415	9.402866	-1.142825	3.249235	-0.834982	-0.697549	0.109088	-41.128224	-80.354145	168.696447
16165	3654440	9.395520	-1.194240	3.404528	-0.740139	-0.708185	0.099884	-41.694564	-80.421603	169.163319
16166	3654465	9.352319	-1.263563	3.562371	-0.645606	-0.714275	0.086489	-42.249598	-80.490226	169.632362
16167	3654490	9.321826	-1.252959	3.659377	-0.552297	-0.722687	0.059879	-42.786688	-80.561570	170.096668
16168	3654515	9.435800	-1.319329	3.745657	-0.478220	-0.717700	0.033057	-43.301284	-80.634200	170.547600
16169	3654540	9.432939	-1.362077	3.761445	-0.422946	-0.705585	0.006768	-43.790973	-80.707627	170.982451
16170	3654565	9.394487	-1.305660	3.756282	-0.383778	-0.678474	-0.018504	-44.249677	-80.780190	171.391503
16171	3654590	9.309308	-1.260031	3.691301	-0.384106	-0.647067	-0.038210	-44.683168	-80.851005	171.774884
16172	3654615	9.266724	-1.246173	3.659426	-0.388484	-0.603047	-0.045517	-45.091522	-80.917519	172.130917
16173	3654640	9.251571	-1.280487	3.631426	-0.400889	-0.560515	-0.054471	-45.473791	-80.980388	172.459853
16174	3654665	9.292987	-1.291349	3.592871	-0.420107	-0.513022	-0.045902	-45.838270	-81.037285	172.767935
16175	3654690	9.253050	-1.307761	3.571541	-0.436303	-0.464490	-0.039792	-46.181227	-81.088426	173.051837
16176	3654715	9.233845	-1.287085	3.557007	-0.448360	-0.418553	-0.031933	-46.504283	-81.133820	173.312682
16177	3654740	9.214646	-1.240261	3.550489	-0.445245	-0.378877	-0.022045	-46.809056	-81.174194	173.556574
16178	3654765	9.170916	-1.184882	3.454950	-0.431864	-0.342843	-0.010930	-47.096982	-81.209686	173.785331
16179	3654790	9.143567	-1.183169	3.371265	-0.422569	-0.300305	-0.001696	-47.362386	-81.239900	173.992628
16180	3654815	9.129954	-1.248794	3.271372	-0.397097	-0.265805	-0.009833	-47.597220	-81.267353	174.171595
16181	3654840	9.112235	-1.258123	3.198215	-0.370823	-0.237472	-0.011426	-47.808629	-81.292279	174.331731
16182	3654865	9.115379	-1.258931	3.037471	-0.365269	-0.208493	-0.018451	-47.995701	-81.315084	174.468044
16183	3654890	9.139440	-1.168749	2.835787	-0.354259	-0.180040	-0.022063	-48.159854	-81.335489	174.582759
16184	3654915	9.126274	-1.086891	2.628802	-0.353995	-0.149252	-0.032493	-48.296712	-81.353873	174.668865
16185	3654940	9.129553	-0.959821	2.493716	-0.358526	-0.115824	-0.026277	-48.414721	-81.368532	174.736278
16186	3654965	9.156405	-0.816100	2.302853	-0.364025	-0.084439	-0.023997	-48.513047	-81.379946	174.782983
16187	3654990	9.110172	-0.690326	2.138469	-0.380170	-0.052005	-0.020407	-48.593119	-81.387888	174.808886
16188	3655015	9.109302	-0.589387	1.990013	-0.400075	-0.028180	-0.011641	-48.664934	-81.392474	174.822571
16189	3655040	9.075200	-0.513391	1.902558	-0.444932	0.002703	0.000092	-48.728353	-81.393029	174.822248
16190	3655065	9.070043	-0.449741	1.800432	-0.491156	0.024995	-0.000733	-48.782021	-81.391567	174.805367
16191	3655090	9.062106	-0.402598	1.698284	-0.530303	0.046554	0.004645	-48.829298	-81.387494	174.776351
16192	3655115	9.089752	-0.433982	1.637089	-0.579147	0.072154	0.009567	-48.868611	-81.380326	174.731275
16193	3655140	9.128323	-0.483366	1.605035	-0.618643	0.093390	0.010508	-48.898869	-81.371215	174.672246
16194	3655165	9.076090	-0.437935	1.590545	-0.643662	0.105144	0.007698	-48.922648	-81.361305	174.603037
16195	3655190	9.080226	-0.407706	1.606587	-0.660892	0.120224	0.005330	-48.936781	-81.350234	174.521572
16196	3655215	9.080293	-0.355500	1.609395	-0.672977	0.129551	0.011510	-48.950110	-81.337468	174.436667
16199	3655240	9.123002	-0.382917	1.582778	-0.689593	0.142318	0.024566	-48.964775	-81.322248	174.351576
16200	3655265	9.173772	-0.394120	1.659796	-0.706129	0.151081	0.023228	-48.974917	-81.306351	174.259511
16201	3655290	9.247799	-0.437208	1.771329	-0.699155	0.159688	0.005513	-48.967261	-81.291559	174.150446
16202	3655315	9.265457	-0.410118	1.890972	-0.691475	0.149681	-0.011724	-48.955303	-81.279414	174.037322
16203	3655340	9.259675	-0.402308	1.999964	-0.666928	0.131542	-0.032702	-48.939751	-81.271391	173.924933
16204	3655365	9.281407	-0.479589	2.083423	-0.630023	0.122117	-0.059304	-48.909338	-81.267121	173.802855
16205	3655390	9.268665	-0.558335	2.174836	-0.581360	0.099294	-0.086942	-48.871083	-81.267971	173.679895
16206	3655415	9.237993	-0.661867	2.267455	-0.538480	0.076669	-0.118811	-48.823056	-81.274223	173.552508
16207	3655440	9.181291	-0.732195	2.325649	-0.488316	0.047898	-0.146057	-48.771032	-81.286264	173.429106
16208	3655465	9.120558	-0.729644	2.377462	-0.441022	0.028506	-0.163122	-48.715073	-81.301956	173.308580
16209	3655490	9.065348	-0.772385	2.401190	-0.404872	0.002874	-0.175248	-48.664139	-81.321360	173.198381
16210	3655515	9.069218	-0.919609	2.419311	-0.373155	-0.014736	-0.190590	-48.611232	-81.343907	173.090089
16211	3655540	9.071717	-1.097006	2.418747	-0.358142	-0.032133	-0.205369	-48.558756	-81.369833	172.985114
16212	3655565	9.054942	-1.249689	2.426204	-0.333484	-0.047395	-0.213662	-48.507882	-81.398082	172.885340
16213	3655590	9.083905	-1.310047	2.374203	-0.314552	-0.062144	-0.226951	-48.455903	-81.429144	172.787198
16214	3655615	9.126554	-1.381488	2.346113	-0.305234	-0.065836	-0.225221	-48.405808	-81.460194	172.691647
16215	3655640	9.232486	-1.527176	2.309791	-0.291614	-0.069658	-0.219333	-48.359671	-81.491130	172.602752
16216	3655665	9.202226	-1.639570	2.224366	-0.281309	-0.077511	-0.221281	-48.315952	-81.523011	172.517800
16217	3655690	9.169169	-1.646468	2.224346	-0.269523	-0.075166	-0.217575	-48.270748	-81.554263	172.433061
16218	3655715	9.151241	-1.645110	2.232311	-0.251611	-0.075261	-0.217940	-48.222350	-81.585381	172.347027
16219	3655740	9.211760	-1.678184	2.242856	-0.231785	-0.085212	-0.215109	-48.179625	-81.617309	172.270272
16220	3655765	9.218662	-1.712503	2.220118	-0.207929	-0.106205	-0.209764	-48.151756	-81.650665	172.211993
16221	3655790	9.190015	-1.747759	2.089808	-0.176160	-0.118707	-0.200751	-48.133999	-81.684250	172.168538
16222	3655815	9.209618	-1.745871	1.958306	-0.122328	-0.123225	-0.182621	-48.123502	-81.716155	172.139545
16223	3655840	9.311727	-1.764797	1.866635	-0.083649	-0.127827	-0.163339	-48.123387	-81.746621	172.127314
16224	3655865	9.391767	-1.716546	1.825664	-0.044586	-0.121547	-0.159672	-48.115413	-81.776094	172.112798
16225	3655890	9.405769	-1.680520	1.755364	-0.023881	-0.114723	-0.147207	-48.107613	-81.803586	172.101455
16226	3655915	9.367308	-1.614502	1.752879	-0.014892	-0.107759	-0.126715	-48.106952	-81.828043	172.097943
16227	3655940	9.314965	-1.584322	1.774198	-0.014973	-0.106440	-0.111812	-48.115253	-81.850968	172.104157
16228	3655965	9.325986	-1.556860	1.795549	-0.022487	-0.112277	-0.093403	-48.141357	-81.872488	172.127266
16229	3655990	9.314970	-1.541789	1.803534	-0.045371	-0.131325	-0.086465	-48.189803	-81.895085	172.169631
16230	3656015	9.273867	-1.482457	1.750576	-0.073446	-0.139499	-0.075580	-48.255993	-81.917104	172.225168
16231	3656040	9.227172	-1.431447	1.726789	-0.100783	-0.146082	-0.065449	-48.338223	-81.938846	172.293634
16232	3656065	9.298866	-1.425846	1.700294	-0.137059	-0.156447	-0.056717	-48.439802	-81.960623	172.376391
16233	3656090	9.261676	-1.401175	1.717623	-0.159693	-0.164585	-0.051180	-48.555058	-81.982556	172.469680
16234	3656115	9.265939	-1.324115	1.705939	-0.179359	-0.165221	-0.048672	-48.675863	-82.004061	172.565039
16235	3656140	9.292149	-1.340506	1.679340	-0.185771	-0.158209	-0.046635	-48.794170	-82.024848	172.657629
16236	3656165	9.339086	-1.312896	1.650206	-0.195214	-0.153492	-0.052734	-48.906629	-82.045823	172.742941
16237	3656190	9.332286	-1.242758	1.657097	-0.191146	-0.150412	-0.055812	-49.014559	-82.066818	172.824267
16238	3656215	9.310282	-1.138421	1.706584	-0.191161	-0.154163	-0.058413	-49.124117	-82.088228	172.906553
16239	3656240	9.235861	-1.004030	1.807938	-0.191253	-0.155446	-0.058474	-49.235219	-82.109940	172.991055
16240	3656265	9.234535	-0.903765	1.849454	-0.186682	-0.168730	-0.065027	-49.352222	-82.133581	173.082172
16241	3656290	9.226237	-0.803667	1.922860	-0.195938	-0.193061	-0.063619	-49.491363	-82.159308	173.194292
16242	3656315	9.165587	-0.828422	1.933337	-0.193705	-0.221196	-0.066817	-49.651131	-82.187758	173.326908
16243	3656340	9.159962	-0.905426	1.929139	-0.203159	-0.258496	-0.068194	-49.842353	-82.219954	173.490536
16244	3656365	9.229776	-1.074902	2.002996	-0.200050	-0.290287	-0.072576	-50.057290	-82.255482	173.678534
16245	3656390	9.228360	-1.090010	2.010927	-0.186379	-0.320821	-0.084944	-50.288601	-82.295072	173.885016
16246	3656415	9.267040	-1.010256	2.007188	-0.183214	-0.352430	-0.097960	-50.538729	-82.338666	174.110311
16247	3656440	9.245064	-0.969007	2.004715	-0.173602	-0.377746	-0.104527	-50.806907	-82.385350	174.355795
16248	3656465	9.220470	-0.911073	1.965014	-0.161178	-0.403138	-0.103393	-51.098526	-82.434039	174.626694
16249	3656490	9.140682	-0.860160	1.957140	-0.150786	-0.423208	-0.105393	-51.407953	-82.484563	174.917028
16250	3656515	9.062303	-0.833854	1.925330	-0.144310	-0.442536	-0.109391	-51.734155	-82.536839	175.224609
16251	3656540	9.016816	-0.831196	1.938578	-0.135453	-0.460620	-0.115584	-52.075286	-82.591381	175.549059
16252	3656565	9.030529	-0.844975	1.954533	-0.142345	-0.476593	-0.110996	-52.439479	-82.646545	175.895729
16253	3656590	9.359533	-0.878211	1.987823	-0.140074	-0.492576	-0.115772	-52.819707	-82.703352	176.258851
16254	3656615	9.372828	-1.005180	2.124139	-0.153004	-0.541529	-0.122620	-53.246890	-82.764623	176.666858
16255	3656640	9.195871	-1.008196	1.843806	-0.157414	-0.570658	-0.156008	-53.686338	-82.832036	177.087067
16256	3656665	9.104426	-0.846365	1.586606	-0.162847	-0.544587	-0.177456	-54.095950	-82.899339	177.476361
16257	3656690	8.961132	-0.773658	1.641238	-0.149867	-0.481403	-0.168404	-54.457743	-82.959977	177.819288
16258	3656715	8.827039	-0.810083	1.820445	-0.122815	-0.418764	-0.148329	-54.775030	-83.012615	178.120737
16259	3656740	8.733947	-0.910122	2.093725	-0.090873	-0.369583	-0.113486	-55.068842	-83.057131	178.403613
16260	3656765	8.691960	-0.978449	2.336582	-0.075036	-0.340231	-0.092325	-55.349747	-83.096587	178.675748
16261	3656790	8.629545	-1.020258	2.491841	-0.071467	-0.328916	-0.072074	-55.635798	-83.132572	178.953559
16262	3656815	8.634684	-1.086699	2.605880	-0.078860	-0.321923	-0.059259	-55.927023	-83.166092	179.235039
16263	3656840	8.678381	-1.192912	2.693251	-0.104265	-0.327127	-0.059074	-56.230546	-83.200046	179.525676
16264	3656865	8.733269	-1.219317	2.766277	-0.113148	-0.334038	-0.068396	-56.539069	-83.235475	179.820045
16265	3656890	8.802110	-1.215244	2.774290	-0.119242	-0.337477	-0.072244	-56.852570	-83.271446	-179.881474
16266	3656915	8.935585	-1.244285	2.802190	-0.122440	-0.346096	-0.068133	-57.180741	-83.307178	-179.569116
16267	3656940	9.095371	-1.278591	2.772912	-0.114220	-0.366959	-0.064746	-57.535631	-83.344115	-179.228284
16268	3656965	9.212564	-1.329140	2.686474	-0.103879	-0.374545	-0.062557	-57.902267	-83.381117	-178.874160
16269	3656990	9.366801	-1.390972	2.650467	-0.095889	-0.383629	-0.054486	-58.286647	-83.417556	-178.501048
16270	3657015	9.482602	-1.418214	2.585359	-0.084694	-0.389057	-0.045316	-58.684594	-83.452762	-178.113069
16271	3657040	9.671357	-1.488107	2.512160	-0.072381	-0.389962	-0.037591	-59.091729	-83.487000	-177.713717
16272	3657065	9.806276	-1.587006	2.474692	-0.065774	-0.392257	-0.036837	-59.505128	-83.520987	-177.307135
16273	3657090	9.950885	-1.647405	2.436053	-0.046779	-0.392459	-0.036554	-59.920500	-83.554620	-176.895857
16274	3657115	10.033241	-1.760316	2.479566	-0.028063	-0.403772	-0.046855	-60.342637	-83.589770	-176.475458
16275	3657140	10.073212	-1.774043	2.462268	-0.006193	-0.416017	-0.054985	-60.775774	-83.626674	-176.040511
16276	3657165	10.084689	-1.762359	2.285638	0.012712	-0.412449	-0.070508	-61.197543	-83.664912	-175.614308
16277	3657190	10.122284	-1.715036	2.137102	0.031960	-0.379883	-0.072223	-61.583429	-83.700798	-175.221465
16278	3657215	10.204919	-1.658791	2.157249	0.037827	-0.319557	-0.079389	-61.898038	-83.732997	-174.899858
16279	3657240	10.291411	-1.590647	2.307674	0.045496	-0.268132	-0.067060	-62.163781	-83.760237	-174.625975
16280	3657265	10.373839	-1.466123	2.468832	0.047553	-0.234121	-0.052287	-62.400930	-83.783207	-174.380572
16281	3657290	10.384556	-1.444657	2.604418	0.053975	-0.211476	-0.019394	-62.632350	-83.800392	-174.140016
16282	3657315	10.380120	-1.550798	2.671757	0.038646	-0.200389	0.013010	-62.872619	-83.812375	-173.893092
16283	3657340	10.366334	-1.608437	2.639727	0.015393	-0.191553	0.031981	-63.119236	-83.821488	-173.642820
16284	3657365	10.373357	-1.634314	2.566573	-0.013886	-0.179136	0.046395	-63.364634	-83.827842	-173.397997
16285	3657390	10.380269	-1.631490	2.562615	-0.041865	-0.160438	0.061575	-63.601285	-83.830943	-173.166005
16286	3657415	10.377558	-1.628691	2.542701	-0.057723	-0.142385	0.069498	-63.822340	-83.831536	-172.952277
16287	3657440	10.389998	-1.608027	2.534814	-0.062326	-0.124303	0.088161	-64.034640	-83.828748	-172.747726
16288	3657465	10.399718	-1.584587	2.518944	-0.058497	-0.115527	0.105317	-64.245607	-83.823119	-172.543962
16289	3657490	10.427506	-1.523822	2.456695	-0.047120	-0.104250	0.123732	-64.451615	-83.814333	-172.343545
16290	3657515	10.430602	-1.416282	2.381305	-0.046179	-0.089002	0.137427	-64.645110	-83.802512	-172.155837
16291	3657540	10.448688	-1.385850	2.325598	-0.040838	-0.080597	0.159788	-64.840974	-83.787461	-171.964709
16292	3657565	10.524496	-1.422823	2.281673	-0.044386	-0.074542	0.182086	-65.041554	-83.769078	-171.769342
16293	3657590	10.534138	-1.465321	2.256304	-0.058010	-0.068416	0.196251	-65.243401	-83.748411	-171.574658
16294	3657615	10.603004	-1.494159	2.238958	-0.067793	-0.065167	0.206640	-65.445681	-83.725870	-171.381170
16295	3657640	10.609916	-1.498209	2.221672	-0.068752	-0.062327	0.212023	-65.647640	-83.702637	-171.187904
16296	3657665	10.651318	-1.454137	2.213900	-0.055237	-0.072676	0.213979	-65.859460	-83.679680	-170.982760
16297	3657690	10.720181	-1.485753	2.199191	-0.028446	-0.079218	0.210775	-66.071969	-83.657441	-170.773053
16298	3657715	10.780678	-1.469410	2.249784	-0.005645	-0.094296	0.201014	-66.290918	-83.637011	-170.553775
16301	3657740	10.861931	-1.410460	2.280560	0.028923	-0.102772	0.201420	-66.515196	-83.617175	-170.323940
16302	3657765	10.934903	-1.377547	2.309934	0.061668	-0.123465	0.209694	-66.761820	-83.597321	-170.066890
16303	3657790	10.977623	-1.308915	2.335441	0.086284	-0.146665	0.216635	-67.033992	-83.577728	-169.780574
16304	3657815	11.010784	-1.256650	2.327634	0.108992	-0.166936	0.222668	-67.326284	-83.558049	-169.470889
16305	3657840	11.083719	-1.240250	2.354327	0.125514	-0.186290	0.237221	-67.645625	-83.537578	-169.131425
16306	3657865	11.156655	-1.226647	2.383655	0.127682	-0.203390	0.247912	-67.987602	-83.516393	-168.768854
16307	3657890	11.192400	-1.222638	2.418228	0.129759	-0.211281	0.258404	-68.341052	-83.493987	-168.394421
16308	3657915	11.233672	-1.202110	2.442277	0.136609	-0.222136	0.284228	-68.713678	-83.468183	-167.999791
16309	3657940	11.276199	-1.232579	2.491314	0.143290	-0.229538	0.289805	-69.095140	-83.441975	-167.595174
16310	3657965	11.322902	-1.273949	2.516455	0.143825	-0.242233	0.312091	-69.497820	-83.413110	-167.169098
16311	3657990	11.390258	-1.291999	2.558964	0.152479	-0.246677	0.330435	-69.908561	-83.381656	-166.733634
16312	3658015	11.436989	-1.325093	2.574812	0.161965	-0.258151	0.357801	-70.336664	-83.346454	-166.279347
16313	3658040	11.464432	-1.373249	2.591940	0.174196	-0.262716	0.377128	-70.773236	-83.308717	-165.814682
16314	3658065	11.431410	-1.396553	2.562622	0.200245	-0.265694	0.405625	-71.215564	-83.266846	-165.340427
16315	3658090	11.442609	-1.377055	2.501598	0.214654	-0.267667	0.431813	-71.662329	-83.221080	-164.859581
16316	3658115	11.486768	-1.429110	2.429716	0.220497	-0.266559	0.461745	-72.109801	-83.170499	-164.377133
16317	3658140	11.456636	-1.324539	2.420741	0.227174	-0.259303	0.488307	-72.552634	-83.115784	-163.898342
16318	3658165	11.492925	-1.363609	2.212040	0.236665	-0.253806	0.529611	-72.994838	-83.054745	-163.418756
16319	3658190	11.604881	-1.460435	1.988616	0.227946	-0.228487	0.568479	-73.414866	-82.986895	-162.962705
16320	3658215	11.623169	-1.527086	1.793095	0.227912	-0.197464	0.605187	-73.801920	-82.912113	-162.539767
16321	3658240	11.740506	-1.646059	1.605434	0.232634	-0.158729	0.632031	-74.147699	-82.832017	-162.157719
16322	3658265	11.812494	-1.704525	1.419277	0.253727	-0.115953	0.664967	-74.445942	-82.745455	-161.820472
16323	3658290	11.905451	-1.696645	1.144347	0.268591	-0.059146	0.691366	-74.681390	-82.652887	-161.544318
16324	3658315	12.014999	-1.681767	0.845549	0.283323	0.005586	0.733689	-74.849965	-82.551669	-161.333351
16325	3658340	12.241425	-1.770137	0.578335	0.276335	0.081173	0.776337	-74.949449	-82.441909	-161.193091
16326	3658365	12.584600	-1.927609	0.380084	0.278090	0.163482	0.811191	-74.970263	-82.324250	-161.131909
16327	3658390	12.948273	-2.173147	0.210695	0.277999	0.241786	0.823578	-74.914077	-82.201966	-161.148431
16328	3658415	13.399908	-2.343465	0.137225	0.279635	0.311193	0.810549	-74.784441	-82.078640	-161.238830
16329	3658440	13.801871	-2.490631	0.129016	0.276041	0.364330	0.779599	-74.600241	-81.957789	-161.384911
16330	3658465	14.037399	-2.490555	0.099922	0.273439	0.399360	0.732684	-74.374991	-81.842000	-161.572875
16331	3658490	14.119002	-2.407753	0.003279	0.278910	0.433520	0.681065	-74.108457	-81.731885	-161.801812
16332	3658515	14.094703	-2.287626	-0.130551	0.269859	0.473650	0.649934	-73.802092	-81.624059	-162.072379
16333	3658540	14.103353	-2.184141	-0.219224	0.238583	0.515378	0.625041	-73.463946	-81.517998	-162.379676
16334	3658565	14.093719	-2.005824	-0.111030	0.204958	0.548516	0.610411	-73.104442	-81.412307	-162.713525
16335	3658590	13.896784	-1.838303	-0.024258	0.158352	0.564175	0.594293	-72.741508	-81.307854	-163.057688
16336	3658615	13.647678	-1.674790	0.015986	0.107415	0.577331	0.581813	-72.377564	-81.203966	-163.410365
16337	3658640	13.527763	-1.530744	0.125291	0.066683	0.583319	0.577295	-72.022817	-81.100349	-163.759723
16338	3658665	13.506088	-1.258530	0.150076	0.028633	0.580396	0.570902	-71.682281	-80.997408	-164.100312
16339	3658690	13.480051	-1.123820	0.175741	0.011550	0.569017	0.569891	-71.361222	-80.894818	-164.423752
16340	3658715	13.330350	-0.926954	0.115254	-0.006652	0.563601	0.561939	-71.050737	-80.793026	-164.739198
16341	3658740	13.233069	-0.797187	-0.003962	-0.006279	0.572308	0.571065	-70.743901	-80.689574	-165.051002
16342	3658765	13.130340	-0.630285	-0.124360	0.006060	0.591987	0.571266	-70.426137	-80.584885	-165.372183
16343	3658790	13.188057	-0.688123	-0.099289	0.040454	0.608984	0.564419	-70.094850	-80.480003	-165.702176
16344	3658815	13.196243	-0.677224	-0.073957	0.086714	0.629410	0.557467	-69.744614	-80.374484	-166.044699
16345	3658840	13.108711	-0.525306	-0.231607	0.141934	0.658873	0.544740	-69.368551	-80.269088	-166.405573
16346	3658865	13.157008	-0.506002	-0.247471	0.206970	0.691344	0.536731	-68.963696	-80.162700	-166.786326
16347	3658890	13.169180	-0.461139	-0.126423	0.275552	0.723253	0.529567	-68.531061	-80.055140	-167.185430
16348	3658915	13.052146	-0.404784	-0.107684	0.342950	0.750336	0.533046	-68.077226	-79.944915	-167.596260
16349	3658940	13.081996	-0.435684	0.074179	0.413519	0.771210	0.527883	-67.606928	-79.833919	-168.013816
16350	3658965	13.152804	-0.506901	0.351633	0.506191	0.770705	0.515226	-67.129499	-79.724021	-168.425274
16351	3658990	13.138615	-0.583000	0.468337	0.598349	0.753206	0.500041	-66.656204	-79.616505	-168.819254
16352	3659015	13.026720	-0.646563	0.571624	0.697072	0.727569	0.476791	-66.187468	-79.512696	-169.194148
16353	3659040	12.900959	-0.714459	0.709517	0.778528	0.690849	0.447197	-65.732873	-79.414597	-169.543118
16354	3659065	12.667748	-0.841413	0.827175	0.867494	0.651764	0.418481	-65.290839	-79.322065	-169.866448
16355	3659090	12.392083	-0.985771	0.831854	0.960140	0.606039	0.391317	-64.864676	-79.235372	-170.160216
16356	3659115	12.209917	-1.159174	0.883025	1.064912	0.561872	0.361529	-64.448424	-79.154608	-170.428432
16357	3659140	12.016734	-1.347722	0.920800	1.154294	0.522568	0.323621	-64.039509	-79.081059	-170.676474
16358	3659165	11.768662	-1.524897	0.892174	1.253340	0.484815	0.278808	-63.631164	-79.015323	-170.909541
16359	3659190	11.552103	-1.749099	0.895305	1.348991	0.447737	0.240886	-63.224773	-78.956508	-171.126710
16360	3659215	11.315128	-1.906956	0.830894	1.433555	0.422144	0.203940	-62.812889	-78.903541	-171.336892
16361	3659240	11.074013	-2.060796	0.790425	1.510082	0.398676	0.163004	-62.395449	-78.857273	-171.541884
16362	3659265	10.800024	-2.163531	0.694308	1.582308	0.381771	0.124753	-61.968095	-78.816692	-171.746465
16363	3659290	10.544177	-2.193231	0.551890	1.634000	0.386770	0.098561	-61.523471	-78.778776	-171.961132
16364	3659315	10.304759	-2.121525	0.506821	1.690409	0.393451	0.074185	-61.059321	-78.742893	-172.187239
16365	3659340	10.110894	-2.081161	0.397943	1.739654	0.410487	0.068210	-60.578558	-78.706447	-172.423379
16366	3659365	9.996726	-2.085167	0.349956	1.780284	0.430420	0.058739	-60.078556	-78.669372	-172.673233
16367	3659390	9.872686	-2.086562	0.379156	1.831053	0.450871	0.050171	-59.558078	-78.631450	-172.936588
16368	3659415	9.785779	-2.166423	0.397391	1.875984	0.469074	0.040415	-59.018181	-78.592677	-173.213001
16369	3659440	9.719631	-2.154152	0.426663	1.924392	0.482064	0.024547	-58.461371	-78.554606	-173.499853
16370	3659465	9.668543	-2.102163	0.507852	1.976677	0.489519	0.002867	-57.887329	-78.518051	-173.796686
16371	3659490	9.572285	-2.099097	0.440038	2.026927	0.487970	-0.004978	-57.306817	-78.481971	-174.092812
16372	3659515	9.564297	-2.078077	0.339086	2.084538	0.497309	-0.016716	-56.709941	-78.445721	-174.397074
16373	3659540	9.576890	-2.098493	0.251364	2.140565	0.508624	-0.023890	-56.099399	-78.409040	-174.707316
16374	3659565	9.648408	-2.095863	0.292542	2.200191	0.523836	-0.028317	-55.472761	-78.370988	-175.025312
16375	3659590	9.710464	-2.168485	0.217980	2.251783	0.535043	-0.039586	-54.830980	-78.332638	-175.351268
16376	3659615	9.793334	-2.142050	0.135707	2.289079	0.544021	-0.043102	-54.179760	-78.292960	-175.681320
16377	3659640	9.965644	-2.129530	0.081393	2.316571	0.551023	-0.055891	-53.519635	-78.253660	-176.016625
16378	3659665	10.118382	-2.222950	0.071775	2.353723	0.552852	-0.075324	-52.848496	-78.215642	-176.357791
16379	3659690	10.288196	-2.183941	-0.075389	2.391116	0.546181	-0.089862	-52.172813	-78.179042	-176.698175
16380	3659715	10.359047	-2.174677	-0.325081	2.425867	0.556966	-0.108990	-51.480693	-78.142563	-177.050235
16381	3659740	10.501225	-2.203076	-0.475278	2.471298	0.572480	-0.123303	-50.771698	-78.105657	-177.413014
16382	3659765	10.568915	-2.385338	-0.653937	2.512339	0.595535	-0.143291	-50.039486	-78.067917	-177.793563
16383	3659790	10.634741	-2.473660	-0.589012	2.548331	0.617022	-0.177217	-49.279724	-78.030868	-178.197054
16384	3659815	10.632096	-2.454210	-0.626105	2.607391	0.630518	-0.220286	-48.488496	-77.995818	-178.624121
16385	3659840	10.558019	-2.439960	-0.737718	2.657791	0.644582	-0.252954	-47.672553	-77.961917	-179.069128
16386	3659865	10.487964	-2.485056	-0.828324	2.688297	0.657453	-0.285194	-46.834804	-77.928821	-179.532020
16387	3659890	10.434093	-2.593551	-0.846114	2.707960	0.677410	-0.335240	-45.965082	-77.897508	179.975214
16388	3659915	10.388754	-2.624826	-0.908627	2.698214	0.695817	-0.385695	-45.067414	-77.867667	179.452283
16389	3659940	10.321721	-2.626900	-1.087998	2.662810	0.719166	-0.436419	-44.143938	-77.839058	178.897807
16390	3659965	10.251739	-2.593651	-1.163661	2.584996	0.746755	-0.489327	-43.197090	-77.810923	178.307960
16391	3659990	10.089434	-2.512487	-1.187375	2.489762	0.779787	-0.534959	-42.230488	-77.781672	177.683881
16392	3660015	9.816385	-2.482813	-1.029361	2.403202	0.807106	-0.563912	-41.253517	-77.749782	177.036225
16393	3660040	9.667408	-2.458485	-0.919109	2.328221	0.817668	-0.568342	-40.285290	-77.715085	176.386653
16394	3660065	9.623265	-2.418754	-0.873839	2.258598	0.818762	-0.561341	-39.334788	-77.677319	175.744926
16395	3660090	9.620691	-2.277270	-0.852022	2.206014	0.823152	-0.546149	-38.402761	-77.635458	175.114304
16396	3660115	9.616589	-2.192033	-0.827954	2.158098	0.824739	-0.518940	-37.496055	-77.588618	174.502163
16397	3660140	9.594484	-2.159218	-0.787939	2.106480	0.817124	-0.482107	-36.624898	-77.537683	173.919048
16398	3660165	9.575214	-2.123500	-0.769301	2.061997	0.814105	-0.442680	-35.787839	-77.481896	173.364212
16399	3660190	9.641396	-2.045229	-0.750421	2.000702	0.803443	-0.402363	-34.990887	-77.422303	172.841345
16400	3660215	9.699166	-2.012441	-0.701082	1.934391	0.793488	-0.366199	-34.232130	-77.359167	172.347364
16403	3660240	9.769213	-2.034631	-0.645347	1.858186	0.775323	-0.324469	-33.519174	-77.293720	171.889410
16404	3660265	9.816016	-2.008619	-0.611992	1.759605	0.761294	-0.282215	-32.853544	-77.225437	171.465379
16405	3660290	9.844815	-1.942979	-0.530766	1.645789	0.737306	-0.239004	-32.240973	-77.155683	171.078927
16406	3660315	9.910874	-1.873115	-0.456062	1.513639	0.707540	-0.195731	-31.685325	-77.085164	170.730868
16407	3660340	10.051257	-1.775801	-0.373348	1.368595	0.680642	-0.149651	-31.188547	-77.014012	170.422272
16408	3660365	10.261895	-1.667550	-0.286513	1.210698	0.638244	-0.094390	-30.761434	-76.943438	170.161877
16409	3660390	10.451885	-1.568906	-0.195737	1.041612	0.597650	-0.039472	-30.403877	-76.873467	169.947954
16410	3660415	10.565944	-1.502077	-0.054583	0.867164	0.553921	0.015207	-30.116494	-76.804467	169.779851
16411	3660440	10.706168	-1.426971	0.082538	0.697875	0.498782	0.076725	-29.904835	-76.737955	169.665104
16412	3660465	10.826009	-1.333684	0.129454	0.533302	0.444771	0.141394	-29.768473	-76.673466	169.603474
16413	3660490	10.912553	-1.228334	0.281319	0.381212	0.384675	0.206411	-29.706698	-76.611807	169.596098
16414	3660515	10.963442	-1.136551	0.365380	0.252956	0.330299	0.267364	-29.711379	-76.552373	169.637607
16415	3660540	10.982659	-1.106401	0.406667	0.145517	0.270370	0.322838	-29.777725	-76.496656	169.727258
16416	3660565	11.037260	-1.177145	0.573863	0.053583	0.207417	0.366195	-29.897541	-76.445638	169.858382
16417	3660590	11.057419	-1.299992	0.699674	-0.000595	0.134082	0.391267	-30.058755	-76.401848	170.024136
16418	3660615	11.039142	-1.366401	0.816368	-0.027983	0.053018	0.403102	-30.252941	-76.366923	170.219245
16419	3660640	11.064874	-1.489157	0.918247	-0.033277	-0.036807	0.395904	-30.470115	-76.343660	170.437815
16420	3660665	11.077041	-1.548496	0.975225	-0.014076	-0.128661	0.380400	-30.703562	-76.332651	170.675977
16421	3660690	11.102885	-1.535217	1.114799	0.037724	-0.225839	0.342067	-30.939275	-76.336178	170.924112
16422	3660715	11.120297	-1.585359	1.291335	0.122088	-0.327337	0.300251	-31.172876	-76.354812	171.181913
16423	3660740	11.160033	-1.695473	1.314951	0.226294	-0.432934	0.247689	-31.398277	-76.390236	171.447190
16424	3660765	11.190183	-1.735449	1.336101	0.350843	-0.522059	0.191203	-31.606292	-76.440535	171.712887
16425	3660790	11.192586	-1.793638	1.452812	0.495723	-0.625017	0.135091	-31.799238	-76.507387	171.984363
16426	3660815	11.046736	-1.776945	1.412936	0.655560	-0.717423	0.076787	-31.971235	-76.589492	172.257141
16427	3660840	10.892557	-1.680768	1.439766	0.830125	-0.805633	0.018281	-32.119408	-76.686770	172.531645
16428	3660865	10.727488	-1.626920	1.397308	1.011263	-0.887734	-0.033508	-32.244731	-76.797800	172.809213
16429	3660890	10.517001	-1.566194	1.340297	1.179991	-0.958808	-0.076158	-32.350518	-76.920572	173.091403
16430	3660915	10.252958	-1.454399	1.255497	1.348668	-1.022641	-0.118247	-32.434945	-77.053996	173.375687
16431	3660940	10.001270	-1.338559	1.182652	1.508392	-1.076817	-0.152917	-32.500283	-77.196741	173.664337
16432	3660965	9.804524	-1.291604	1.136232	1.635975	-1.120285	-0.196746	-32.542685	-77.348050	173.948040
16433	3660990	9.588799	-1.094573	1.054420	1.750257	-1.151667	-0.229892	-32.565519	-77.505668	174.228294
16434	3661015	9.308119	-0.947331	1.028162	1.846760	-1.179051	-0.261289	-32.570673	-77.668809	174.503782
16435	3661040	9.071637	-0.760047	0.980848	1.920752	-1.202133	-0.286518	-32.563199	-77.836871	174.777663
16436	3661065	8.866809	-0.556366	0.948169	1.973265	-1.223857	-0.308435	-32.547392	-78.009257	175.050538
16437	3661090	8.666073	-0.421329	0.892685	1.994808	-1.247646	-0.325704	-32.531101	-78.185862	175.325897
16438	3661115	8.520538	-0.224404	0.837494	2.001092	-1.266353	-0.343161	-32.514592	-78.365903	175.601156
16439	3661140	8.380468	0.001284	0.800958	1.998410	-1.277334	-0.357967	-32.498035	-78.548610	175.876410
16440	3661165	8.192078	0.239134	0.816226	1.979512	-1.293064	-0.370481	-32.486955	-78.734194	176.154312
16441	3661190	7.944421	0.428925	0.843260	1.955122	-1.303866	-0.375245	-32.485224	-78.921456	176.438001
16442	3661215	7.767110	0.594137	0.794561	1.905908	-1.310091	-0.380275	-32.494706	-79.109676	176.725201
16443	3661240	7.720132	0.606304	0.839748	1.828369	-1.315476	-0.387478	-32.518375	-79.299262	177.015903
16444	3661265	7.700203	0.520212	1.050637	1.738530	-1.321776	-0.388702	-32.562553	-79.489672	177.314197
16445	3661290	7.782029	0.158095	1.159748	1.638637	-1.324746	-0.394939	-32.624647	-79.680870	177.615973
16446	3661315	7.957603	-0.273925	1.198248	1.514903	-1.333901	-0.389941	-32.718688	-79.872538	177.931534
16447	3661340	8.052038	-0.679660	1.195635	1.412679	-1.337539	-0.377474	-32.845780	-80.063741	178.266086
16448	3661365	8.139708	-0.994670	1.203983	1.332082	-1.349485	-0.350625	-33.017781	-80.254137	178.634305
16449	3661390	8.160032	-1.229824	1.197886	1.282823	-1.356511	-0.317559	-33.234452	-80.442574	179.040469
16450	3661415	8.078558	-1.427759	1.182592	1.259242	-1.363127	-0.292556	-33.488093	-80.629379	179.479962
16451	3661440	7.929883	-1.479771	1.138475	1.252889	-1.364194	-0.263113	-33.779139	-80.813802	179.956701
16452	3661465	7.718973	-1.599414	1.135264	1.266598	-1.367236	-0.238715	-34.103689	-80.996220	-179.530886
16453	3661490	7.479271	-1.600824	1.165729	1.284894	-1.379485	-0.226636	-34.458453	-81.178630	-178.985496
16454	3661515	7.247813	-1.594036	1.209458	1.313831	-1.384322	-0.230414	-34.827435	-81.361206	-178.422353
16455	3661540	6.887042	-1.551370	1.222688	1.329256	-1.393561	-0.241538	-35.210936	-81.545388	-177.842013
16456	3661565	6.600492	-1.489683	1.285170	1.335147	-1.406358	-0.265229	-35.603402	-81.732443	-177.252037
16457	3661590	6.447280	-1.450391	1.449999	1.333622	-1.421338	-0.302285	-35.997479	-81.923750	-176.660938
16458	3661615	6.353785	-1.377458	1.454196	1.324238	-1.442812	-0.346370	-36.393020	-82.120507	-176.070607
16459	3661640	6.312517	-1.371856	1.422271	1.305351	-1.459167	-0.386669	-36.793039	-82.322189	-175.478167
16460	3661665	6.357783	-1.488794	1.427236	1.287441	-1.473893	-0.421498	-37.201878	-82.527988	-174.879700
16461	3661690	6.532416	-1.692335	1.412039	1.242669	-1.483202	-0.448169	-37.628391	-82.736586	-174.270162
16462	3661715	6.707039	-1.941156	1.368836	1.197526	-1.497746	-0.462012	-38.089469	-82.947252	-173.633258
16463	3661740	6.956022	-2.231227	1.328138	1.160426	-1.495858	-0.463178	-38.587594	-83.157320	-172.964007
16464	3661765	7.280586	-2.697144	1.211215	1.127472	-1.488872	-0.445731	-39.138596	-83.364290	-172.246557
16465	3661790	7.581504	-3.237511	1.159099	1.096212	-1.476352	-0.421419	-39.748403	-83.566801	-171.474722
16466	3661815	7.828765	-3.633748	1.184547	1.072397	-1.453179	-0.394519	-40.413098	-83.763112	-170.652207
16467	3661840	8.043380	-3.931950	1.125215	1.047471	-1.428464	-0.367517	-41.135520	-83.953292	-169.774717
16468	3661865	8.101224	-4.211903	0.958192	0.999742	-1.391142	-0.349026	-41.900972	-84.136479	-168.861139
16469	3661890	8.063982	-4.288752	0.920738	0.937832	-1.340246	-0.346951	-42.681796	-84.312777	-167.941319
16470	3661915	7.807875	-4.310604	0.899189	0.868166	-1.286205	-0.343886	-43.474501	-84.481632	-167.020890
16471	3661940	7.450231	-4.255076	0.787546	0.786490	-1.241378	-0.345031	-44.284285	-84.644899	-166.094288
16472	3661965	7.208003	-4.006344	0.841447	0.705612	-1.188391	-0.345278	-45.100701	-84.801532	-165.172903
16473	3661990	6.900062	-3.704991	0.824962	0.636016	-1.146043	-0.357419	-45.917860	-84.953931	-164.261007
16474	3662015	6.614309	-3.396430	0.714207	0.565176	-1.103174	-0.357267	-46.746307	-85.100677	-163.349402
16475	3662040	6.368461	-3.196444	0.567233	0.479710	-1.064931	-0.375371	-47.571604	-85.244654	-162.452216
16476	3662065	6.115822	-2.850843	0.472606	0.386007	-1.023755	-0.383131	-48.400230	-85.384405	-161.565342
16477	3662090	5.995525	-2.515999	0.304924	0.302486	-0.978387	-0.384024	-49.230380	-85.518908	-160.689112
16478	3662115	5.998061	-2.231584	0.006948	0.208545	-0.920746	-0.370342	-50.059371	-85.645334	-159.829058
16479	3662140	5.958765	-1.853170	-0.054251	0.124309	-0.848462	-0.336111	-50.884799	-85.760633	-158.983454
16480	3662165	6.076403	-1.632786	-0.150457	0.047016	-0.778197	-0.283675	-51.722894	-85.862847	-158.136369
16481	3662190	6.140177	-1.464705	-0.236240	-0.026463	-0.720176	-0.220542	-52.598391	-85.951883	-157.262441
16482	3662215	6.169357	-1.349091	-0.261071	-0.103633	-0.659359	-0.158773	-53.498243	-86.027416	-156.376696
16483	3662240	6.263478	-1.213911	-0.374816	-0.181079	-0.598042	-0.097768	-54.414391	-86.089941	-155.484382
16484	3662265	6.247397	-1.077362	-0.475384	-0.268297	-0.543033	-0.035954	-55.350796	-86.139690	-154.584347
16485	3662290	6.257546	-0.942094	-0.603788	-0.356355	-0.467384	0.020632	-56.256027	-86.175657	-153.728242
16486	3662315	6.240049	-0.830304	-0.700422	-0.441033	-0.394654	0.079027	-57.125535	-86.197806	-152.921587
16487	3662340	6.240187	-0.823235	-0.750872	-0.521809	-0.315110	0.144301	-57.946381	-86.205369	-152.173847
16488	3662365	6.229399	-0.765246	-0.813148	-0.593166	-0.233793	0.196703	-58.689184	-86.199749	-151.514569
16489	3662390	6.283322	-0.733366	-0.878110	-0.670478	-0.157404	0.244123	-59.351573	-86.182139	-150.946970
16490	3662415	6.319281	-0.711177	-0.924517	-0.748488	-0.072256	0.279661	-59.899257	-86.153363	-150.506998
16491	3662440	6.308495	-0.672388	-0.994836	-0.841730	0.003538	0.305003	-60.341254	-86.115987	-150.184842
16492	3662465	6.290724	-0.622770	-1.017251	-0.935765	0.079270	0.318408	-60.665247	-86.071453	-149.994452
16493	3662490	6.216405	-0.552688	-0.997147	-1.028574	0.152279	0.321227	-60.868098	-86.021401	-149.938807
16494	3662515	6.175129	-0.501839	-0.983717	-1.109612	0.223446	0.317864	-60.948644	-85.966600	-150.018882
16495	3662540	6.138126	-0.389019	-0.992678	-1.172194	0.290296	0.317630	-60.921703	-85.907383	-150.214225
16496	3662565	6.146440	-0.354625	-0.989923	-1.228467	0.348076	0.306866	-60.796104	-85.845464	-150.516578
16497	3662590	6.165849	-0.272097	-0.990942	-1.270371	0.411399	0.295255	-60.564578	-85.780485	-150.931184
16498	3662615	6.172747	-0.165055	-0.932136	-1.305494	0.463939	0.286181	-60.251402	-85.712578	-151.434213
16499	3662640	6.183656	-0.082875	-0.841513	-1.328077	0.510063	0.284764	-59.878511	-85.641528	-151.998950
16500	3662665	6.205740	0.033832	-0.794643	-1.334500	0.540565	0.271365	-59.460442	-85.569635	-152.609973
16501	3662690	6.282821	0.116054	-0.730572	-1.318961	0.569287	0.280348	-59.020318	-85.494184	-153.240949
16502	3662715	6.363931	0.154253	-0.648013	-1.291739	0.579560	0.284813	-58.582023	-85.416855	-153.867672
16505	3662740	6.482228	0.184237	-0.573471	-1.262995	0.582294	0.281683	-58.150815	-85.339523	-154.481793
16506	3662765	6.603131	0.207079	-0.439106	-1.217545	0.573467	0.284404	-57.745653	-85.262173	-155.063317
16507	3662790	6.736117	0.114212	-0.252016	-1.153304	0.540704	0.283997	-57.393754	-85.187076	-155.582222
16508	3662815	6.810014	-0.001798	-0.127460	-1.080673	0.505461	0.261258	-57.073312	-85.117009	-156.060552
16509	3662840	6.861756	-0.120689	0.038256	-0.983274	0.452978	0.238282	-56.802367	-85.053784	-156.473866
16510	3662865	6.985076	-0.239670	0.225253	-0.862697	0.388573	0.211312	-56.586382	-84.998703	-156.814713
16511	3662890	7.192363	-0.372449	0.420229	-0.734823	0.316227	0.179723	-56.427456	-84.953018	-157.079920
16512	3662915	7.315714	-0.495524	0.583306	-0.625219	0.225104	0.128968	-56.332940	-84.920376	-157.266072
16513	3662940	7.468139	-0.685587	0.651860	-0.526707	0.137669	0.079454	-56.298845	-84.900750	-157.376051
16514	3662965	7.668572	-0.819686	0.833544	-0.430586	0.038841	0.024985	-56.334719	-84.895468	-157.401963
16515	3662990	7.859766	-0.870862	0.891931	-0.349972	-0.055134	-0.035882	-56.430487	-84.904901	-157.356150
16516	3663015	8.002676	-0.937224	0.980838	-0.271143	-0.154525	-0.078496	-56.610660	-84.927083	-157.215611
16517	3663040	8.112755	-0.944303	1.016742	-0.191882	-0.251541	-0.124735	-56.871892	-84.962562	-156.980958
16518	3663065	8.310690	-1.032761	1.113549	-0.131746	-0.345975	-0.159061	-57.227507	-85.009412	-156.642926
16519	3663090	8.530762	-1.121032	1.177183	-0.073619	-0.442213	-0.186303	-57.691881	-85.066755	-156.187397
16520	3663115	8.807694	-1.190921	1.088086	-0.063774	-0.523832	-0.215648	-58.255812	-85.133318	-155.631922
16521	3663140	8.823704	-1.107985	1.331544	-0.063179	-0.600609	-0.225724	-58.938876	-85.206509	-154.955513
16522	3663165	8.952893	-1.205908	1.397700	-0.061733	-0.684048	-0.228752	-59.765079	-85.285411	-154.135338
16523	3663190	9.051722	-1.276376	1.481230	-0.073154	-0.759861	-0.231561	-60.735128	-85.368976	-153.172574
16524	3663215	9.132735	-1.354995	1.527552	-0.082111	-0.821349	-0.230309	-61.839719	-85.454994	-152.077596
16525	3663240	9.169620	-1.454293	1.600340	-0.087039	-0.880519	-0.223380	-63.090321	-85.542418	-150.835637
16526	3663265	9.268716	-1.603905	1.528174	-0.084434	-0.922296	-0.224082	-64.459788	-85.630327	-149.474235
16527	3663290	9.352796	-1.665629	1.469611	-0.074121	-0.954168	-0.220674	-65.941256	-85.717075	-147.999188
16528	3663315	9.458813	-1.782283	1.409519	-0.058965	-0.961419	-0.221366	-67.492164	-85.801163	-146.453884
16529	3663340	9.644696	-1.920999	1.337487	-0.044143	-0.960788	-0.229104	-69.097335	-85.883252	-144.850824
16530	3663365	9.886962	-2.058394	1.301284	-0.023770	-0.947090	-0.219619	-70.743544	-85.960061	-143.203857
16531	3663390	10.053596	-2.155882	1.243970	-0.000449	-0.923215	-0.216846	-72.403427	-86.032000	-141.539984
16532	3663415	10.284935	-2.241045	1.202652	0.024411	-0.886537	-0.209944	-74.048104	-86.097913	-139.889360
16533	3663440	10.516203	-2.331815	1.190526	0.053532	-0.838523	-0.205368	-75.648302	-86.158340	-138.277823
16534	3663465	10.784707	-2.419723	1.146617	0.071584	-0.788853	-0.202335	-77.192423	-86.213664	-136.720005
16535	3663490	11.097188	-2.562731	1.123709	0.089245	-0.727935	-0.200205	-78.648596	-86.264132	-135.247885
16536	3663515	11.347580	-2.697652	1.143375	0.102454	-0.661704	-0.193477	-79.997871	-86.309334	-133.882577
16537	3663540	11.644890	-2.811855	1.144451	0.120945	-0.606622	-0.188291	-81.258576	-86.350669	-132.601928
16538	3663565	11.870474	-2.989333	1.146652	0.138330	-0.546154	-0.181910	-82.411047	-86.388132	-131.427292
16539	3663590	12.100309	-3.098005	1.147771	0.161144	-0.485021	-0.173458	-83.447112	-86.421889	-130.366064
16540	3663615	12.302558	-3.253418	1.135423	0.177573	-0.420135	-0.166143	-84.350786	-86.452304	-129.436760
16541	3663640	12.466264	-3.389578	1.127087	0.192457	-0.362663	-0.167398	-85.136343	-86.481466	-128.622094
16542	3663665	12.608149	-3.425241	1.091157	0.205186	-0.301734	-0.160299	-85.791781	-86.508290	-127.935988
16543	3663690	12.726494	-3.500876	1.081678	0.221127	-0.240566	-0.165677	-86.310012	-86.534848	-127.385074
16544	3663715	12.873790	-3.586042	1.064230	0.242811	-0.184298	-0.157295	-86.698350	-86.559266	-126.962905
16545	3663740	12.985286	-3.691828	1.022724	0.252138	-0.124396	-0.154603	-86.950205	-86.582864	-126.674424
16546	3663765	13.121496	-3.815528	1.001147	0.270446	-0.075907	-0.160962	-87.085424	-86.606953	-126.500165
16547	3663790	13.228905	-3.886944	0.965053	0.295080	-0.029039	-0.168099	-87.104548	-86.631708	-126.438673
16548	3663815	13.299066	-3.968012	0.947601	0.322114	0.023641	-0.175029	-86.988192	-86.656873	-126.510857
16549	3663840	13.417656	-4.011713	0.867775	0.338738	0.068384	-0.183624	-86.758789	-86.683101	-126.692051
16550	3663865	13.466008	-3.992299	0.816058	0.362434	0.116214	-0.194575	-86.402087	-86.710433	-126.997352
16551	3663890	13.506087	-3.986637	0.760289	0.369218	0.159729	-0.208890	-85.927262	-86.739265	-127.419987
16552	3663915	13.531119	-3.917609	0.708680	0.363316	0.197352	-0.220448	-85.345531	-86.768904	-127.952506
16553	3663940	13.536925	-3.788219	0.661279	0.348815	0.240886	-0.226945	-84.645379	-86.798799	-128.603726
16554	3663965	13.523607	-3.614579	0.583453	0.336148	0.277911	-0.240648	-83.835468	-86.829632	-129.366672
16555	3663990	13.492304	-3.428794	0.541520	0.305052	0.313656	-0.243653	-82.921160	-86.859661	-130.238613
16556	3664015	13.474660	-3.248661	0.540780	0.263703	0.362404	-0.250046	-81.864127	-86.888616	-131.261476
16557	3664040	13.477701	-3.061606	0.538756	0.218931	0.392595	-0.245658	-80.719060	-86.915450	-132.376820
16558	3664065	13.464219	-2.829260	0.556755	0.167607	0.422336	-0.233912	-79.489353	-86.938639	-133.584262
16559	3664090	13.478224	-2.649120	0.566636	0.112298	0.449093	-0.216918	-78.188298	-86.957262	-134.871063
16560	3664115	13.541819	-2.496487	0.555219	0.042905	0.470001	-0.203207	-76.833523	-86.971487	-136.223733
16561	3664140	13.588919	-2.323148	0.543851	-0.026134	0.495388	-0.185056	-75.423901	-86.980830	-137.639075
16562	3664165	13.633344	-2.133294	0.512601	-0.083756	0.522098	-0.163201	-73.961205	-86.984268	-139.115821
16563	3664190	13.716183	-2.034152	0.481124	-0.151461	0.538485	-0.132085	-72.488803	-86.980769	-140.612000
16564	3664215	13.850141	-1.915593	0.400548	-0.207496	0.564328	-0.096382	-70.992973	-86.968964	-142.141853
16565	3664240	13.988095	-1.905683	0.312977	-0.250520	0.592432	-0.062545	-69.478215	-86.949374	-143.694688
16566	3664265	14.192074	-1.930184	0.229336	-0.294864	0.619428	-0.021735	-67.964551	-86.920763	-145.252823
16567	3664290	14.357543	-2.009475	0.098954	-0.323831	0.654020	0.015178	-66.439707	-86.883158	-146.826358
16568	3664315	14.611102	-2.110833	-0.026094	-0.352131	0.688261	0.053701	-64.918254	-86.836001	-148.402806
16569	3664340	14.806886	-2.217538	-0.179176	-0.373705	0.736824	0.081100	-63.367445	-86.780240	-150.009642
16570	3664365	14.980673	-2.258371	-0.306728	-0.400549	0.783691	0.114030	-61.810958	-86.714794	-151.626113
16571	3664390	15.060688	-2.300682	-0.374583	-0.422074	0.844071	0.132464	-60.214929	-86.640348	-153.285395
16572	3664415	15.097912	-2.255306	-0.370373	-0.439306	0.891698	0.141679	-58.607684	-86.558378	-154.960734
16573	3664440	15.070757	-2.068052	-0.412271	-0.458665	0.937242	0.144663	-56.995518	-86.470070	-156.641715
16574	3664465	14.904588	-1.803822	-0.456692	-0.494103	0.982362	0.144152	-55.385256	-86.375388	-158.326039
16575	3664490	14.687527	-1.546402	-0.506487	-0.543967	1.027477	0.134517	-53.774456	-86.275168	-160.018241
16576	3664515	14.508844	-1.227411	-0.468340	-0.597105	1.072467	0.128344	-52.175355	-86.168525	-161.708762
16577	3664540	14.338521	-0.927616	-0.463511	-0.660746	1.110475	0.124763	-50.608982	-86.056102	-163.373616
16578	3664565	14.146347	-0.520411	-0.492831	-0.717396	1.140634	0.118509	-49.087021	-85.938577	-165.002314
16579	3664590	13.973575	-0.215961	-0.616781	-0.779729	1.174092	0.118871	-47.615588	-85.814899	-166.589549
16580	3664615	13.872361	0.051293	-0.734148	-0.854165	1.220674	0.130481	-46.195774	-85.682376	-168.138127
16581	3664640	13.778829	0.095392	-0.746016	-0.919536	1.266893	0.136209	-44.821010	-85.542103	-169.649037
16582	3664665	13.721093	0.198575	-0.745738	-0.985893	1.307702	0.135525	-43.493579	-85.395018	-171.122298
16583	3664690	13.659469	0.347251	-0.771891	-1.058979	1.355183	0.135031	-42.208338	-85.240379	-172.564042
16584	3664715	13.636358	0.674298	-0.725719	-1.115687	1.386454	0.137857	-40.988040	-85.079375	-173.951154
16585	3664740	13.531873	0.888704	-0.641310	-1.181341	1.416509	0.144927	-39.836827	-84.912263	-175.276638
16586	3664765	13.436812	0.925735	-0.631929	-1.236631	1.434348	0.132296	-38.739922	-84.742084	-176.555892
16587	3664790	13.371190	1.347749	-0.585501	-1.294513	1.450138	0.130864	-37.709843	-84.568144	-177.776710
16588	3664815	13.196842	1.784977	-0.520333	-1.358849	1.465167	0.134082	-36.750732	-84.390077	-178.937764
16589	3664840	12.957334	1.948487	-0.483950	-1.414272	1.481478	0.146507	-35.864625	-84.207487	179.968132
16590	3664865	12.707814	2.143012	-0.247070	-1.473211	1.486388	0.141584	-35.038192	-84.023130	178.925177
16591	3664890	12.391177	2.456111	-0.125298	-1.517473	1.479847	0.145349	-34.283132	-83.837780	177.947267
16592	3664915	12.004109	2.594740	-0.022674	-1.558124	1.470413	0.150229	-33.597425	-83.651713	177.031189
16593	3664940	11.615593	2.701514	0.139552	-1.603654	1.448276	0.146625	-32.974132	-83.467617	176.172767
16594	3664965	11.272588	2.796268	0.197995	-1.615409	1.426497	0.137393	-32.397851	-83.285863	175.359664
16595	3664990	10.932298	2.957991	0.347174	-1.611125	1.389271	0.129889	-31.873299	-83.108304	174.598974
16596	3665015	10.602764	2.968464	0.519726	-1.584712	1.350251	0.120908	-31.392658	-82.935253	173.884521
16597	3665040	10.288824	2.976920	0.465072	-1.549205	1.302025	0.109099	-30.951247	-82.768440	173.216001
16598	3665065	10.041285	3.037781	0.391950	-1.528002	1.259112	0.095403	-30.542841	-82.607300	172.583576
16599	3665090	9.839872	3.140262	0.599504	-1.478228	1.215842	0.081851	-30.160347	-82.451938	171.984248
16600	3665115	9.648121	3.153495	0.732246	-1.393477	1.156191	0.070252	-29.806927	-82.304185	171.424970
16601	3665140	9.529532	3.064181	0.718612	-1.304815	1.094934	0.047207	-29.467840	-82.165371	170.894108
16602	3665165	9.438751	2.995723	0.631980	-1.227736	1.037683	0.033005	-29.148709	-82.034295	170.394367
16603	3665190	9.383793	2.953379	0.560048	-1.136490	0.988538	0.014856	-28.837664	-81.910260	169.915836
16604	3665215	9.418447	3.001694	0.493748	-1.044328	0.939954	0.007315	-28.542366	-81.792387	169.465281
16607	3665240	9.476474	3.039086	0.443435	-0.942447	0.897843	-0.005928	-28.250656	-81.680507	169.034093
16608	3665265	9.526134	2.952712	0.359483	-0.834123	0.858781	-0.012590	-27.965107	-81.573702	168.624694
16609	3665290	9.628169	2.856822	0.251614	-0.727700	0.824511	-0.015523	-27.685805	-81.471141	168.236914
16610	3665315	9.819456	2.665836	0.195342	-0.631240	0.791084	-0.018907	-27.412778	-81.372680	167.868408
16611	3665340	9.919810	2.382868	0.096175	-0.560086	0.774202	-0.033298	-27.131647	-81.277144	167.502863
16612	3665365	10.024296	2.113602	0.012973	-0.507821	0.760798	-0.043398	-26.847336	-81.183704	167.141581
16613	3665390	10.127436	1.862259	-0.074174	-0.464356	0.749737	-0.063723	-26.551495	-81.092711	166.774842
16614	3665415	10.267866	1.671434	-0.170354	-0.433622	0.744158	-0.078948	-26.248206	-81.003027	166.404121
16615	3665440	10.431965	1.626349	-0.283375	-0.434062	0.743526	-0.078939	-25.951524	-80.913205	166.040742
16616	3665465	10.638775	1.547126	-0.426992	-0.452340	0.748944	-0.086245	-25.655990	-80.822846	165.675783
16617	3665490	11.092209	1.524124	-0.568934	-0.488170	0.762505	-0.066842	-25.382303	-80.729250	165.327664
16618	3665515	11.410071	1.317813	-0.581344	-0.524515	0.787685	-0.039929	-25.132226	-80.630426	164.997394
16619	3665540	11.563910	1.008467	-0.595487	-0.562926	0.821343	-0.013797	-24.901570	-80.525494	164.681842
16620	3665565	11.414491	0.779670	-0.444875	-0.585063	0.852956	-0.013942	-24.668759	-80.416252	164.360790
16621	3665590	10.982410	0.697220	-0.066763	-0.608476	0.860158	-0.020182	-24.438261	-80.306228	164.038580
16622	3665615	10.441414	0.606447	0.339082	-0.600866	0.823857	-0.040038	-24.210465	-80.201844	163.719479
16623	3665640	10.045346	0.521585	0.610805	-0.577919	0.748021	-0.080091	-23.980079	-80.109559	163.401626
16624	3665665	9.817876	0.614527	0.758417	-0.537858	0.648834	-0.095889	-23.769760	-80.030974	163.109887
16625	3665690	9.769600	0.759759	0.875794	-0.469542	0.550045	-0.072815	-23.602651	-79.963854	162.871898
16626	3665715	9.814830	0.862254	1.028954	-0.377579	0.451082	0.001265	-23.511675	-79.905346	162.724000
16627	3665740	9.935475	0.759742	1.196045	-0.292979	0.332707	0.121042	-23.535379	-79.855570	162.705443
16628	3665765	10.115218	0.562388	1.360193	-0.222641	0.196633	0.260964	-23.694625	-79.815630	162.834822
16629	3665790	10.415671	0.136598	1.576826	-0.186981	0.020580	0.389552	-23.997798	-79.791217	163.115641
16630	3665815	10.829388	-0.305145	1.645916	-0.204070	-0.183305	0.484067	-24.437418	-79.787517	163.532122
16631	3665840	11.255785	-0.749213	1.610138	-0.261979	-0.412995	0.541610	-25.003367	-79.809654	164.069027
16632	3665865	11.689431	-1.195435	1.410994	-0.370513	-0.636375	0.553388	-25.672931	-79.858961	164.695344
16633	3665890	12.106986	-1.550524	1.101848	-0.491221	-0.842627	0.519194	-26.415175	-79.935597	165.377801
16634	3665915	12.412044	-1.748375	0.700177	-0.611140	-1.007079	0.459272	-27.203387	-80.035480	166.088791
16635	3665940	12.561717	-1.727710	0.311096	-0.708709	-1.119985	0.372580	-28.000965	-80.153771	166.795380
16636	3665965	12.481446	-1.590338	-0.013943	-0.780395	-1.189024	0.296641	-28.799106	-80.284230	167.491854
16637	3665990	12.307364	-1.395514	-0.243175	-0.828960	-1.204424	0.225651	-29.578462	-80.419934	168.161941
16638	3666015	11.978844	-1.158464	-0.372792	-0.860054	-1.189139	0.171515	-30.336318	-80.556054	168.804904
16639	3666040	11.562096	-0.798055	-0.379785	-0.880719	-1.146948	0.141233	-31.075566	-80.687832	169.426296
16640	3666065	11.152037	-0.513395	-0.347076	-0.866965	-1.078565	0.116588	-31.781771	-80.811804	170.015979
16641	3666090	10.808020	-0.278306	-0.322491	-0.845767	-0.981057	0.097306	-32.441013	-80.924276	170.560974
16642	3666115	10.461252	-0.081618	-0.315362	-0.824777	-0.860969	0.090495	-33.047920	-81.021812	171.055342
16643	3666140	10.188486	0.051468	-0.215374	-0.790212	-0.721416	0.090264	-33.590771	-81.101911	171.490278
16644	3666165	9.970561	0.188239	0.000192	-0.769584	-0.585054	0.100891	-34.077163	-81.164328	171.870978
16645	3666190	9.749678	0.298608	0.276761	-0.770073	-0.455621	0.124054	-34.519494	-81.209082	172.206966
16646	3666215	9.608527	0.355288	0.581101	-0.796063	-0.339471	0.143033	-34.922426	-81.238203	172.498812
16647	3666240	9.529109	0.378581	0.969080	-0.849405	-0.249782	0.167972	-35.305802	-81.254482	172.763597
16648	3666265	9.411058	0.383896	1.376906	-0.909803	-0.185084	0.197636	-35.686371	-81.260479	173.016782
16649	3666290	9.294472	0.342749	1.723429	-0.988433	-0.148964	0.230798	-36.083838	-81.259239	173.275666
16650	3666315	9.170938	0.247979	2.059184	-1.075746	-0.137343	0.259088	-36.508682	-81.253950	173.549187
16651	3666340	9.079226	0.153388	2.344444	-1.158134	-0.135991	0.285274	-36.963422	-81.245970	173.841432
16652	3666365	9.022078	0.063163	2.567296	-1.232705	-0.157921	0.307606	-37.457010	-81.238189	174.162181
16653	3666390	9.011347	-0.116856	2.908132	-1.298290	-0.194790	0.328633	-37.995684	-81.232302	174.519050
16654	3666415	9.024337	-0.253925	3.152156	-1.341713	-0.253783	0.335513	-38.579173	-81.231876	174.914624
16655	3666440	8.996280	-0.372680	3.281895	-1.356631	-0.320248	0.329611	-39.199244	-81.238787	175.345396
16656	3666465	8.960319	-0.364747	3.360265	-1.351153	-0.395216	0.329089	-39.863550	-81.253292	175.821705
16657	3666490	8.917592	-0.363360	3.376191	-1.325766	-0.471594	0.314444	-40.561889	-81.276643	176.336102
16658	3666515	8.836424	-0.420870	3.309583	-1.276769	-0.537539	0.294638	-41.283179	-81.307986	176.880484
16659	3666540	8.740259	-0.439687	3.201812	-1.208577	-0.592555	0.267625	-42.014761	-81.346775	177.445403
16660	3666565	8.655094	-0.396725	3.128868	-1.123433	-0.637418	0.244664	-42.752653	-81.391433	178.028977
16661	3666590	8.610016	-0.304188	3.029480	-1.030158	-0.677841	0.212501	-43.488144	-81.442336	178.623560
16662	3666615	8.511281	-0.214404	2.915481	-0.942526	-0.711501	0.198180	-44.231553	-81.496950	179.238518
16663	3666640	8.401746	-0.110562	2.725740	-0.864919	-0.731895	0.185540	-44.977700	-81.553763	179.867637
16664	3666665	8.250949	0.022325	2.506914	-0.811175	-0.735756	0.181004	-45.724919	-81.610213	-179.494471
16665	3666690	8.167414	0.080666	2.350306	-0.795436	-0.725796	0.186054	-46.475483	-81.663927	-178.851008
16666	3666715	8.069964	0.074308	2.210763	-0.811841	-0.704220	0.190337	-47.224606	-81.713813	-178.211649
16667	3666740	7.888408	0.059608	2.102964	-0.852779	-0.675543	0.201649	-47.974357	-81.758557	-177.577471
16668	3666765	7.728846	0.076429	2.035167	-0.917107	-0.651530	0.211074	-48.729042	-81.798805	-176.947686
16669	3666790	7.631050	-0.008666	1.992344	-0.997405	-0.621139	0.222023	-49.486030	-81.833827	-176.327255
16670	3666815	7.514039	-0.029121	1.958935	-1.080062	-0.599413	0.222869	-50.244466	-81.865541	-175.717506
16671	3666840	7.416162	-0.085545	1.968039	-1.158715	-0.574130	0.221838	-50.999097	-81.893965	-175.122894
16672	3666865	7.304634	-0.115664	1.934612	-1.236234	-0.552185	0.220445	-51.751250	-81.919476	-174.542040
16673	3666890	7.237227	-0.154007	1.891940	-1.308232	-0.541561	0.223482	-52.511207	-81.942628	-173.963755
16674	3666915	7.224752	-0.258342	1.857056	-1.385348	-0.533067	0.220524	-53.277186	-81.964263	-173.390666
16675	3666940	7.150311	-0.310624	1.856801	-1.444856	-0.528486	0.218338	-54.050243	-81.984720	-172.818977
16676	3666965	7.041619	-0.281620	1.831585	-1.496493	-0.530169	0.229596	-54.842075	-82.002913	-172.235825
16677	3666990	6.912340	-0.225107	1.794469	-1.543869	-0.536296	0.238425	-55.653996	-82.019429	-171.639264
16678	3667015	6.829870	-0.212497	1.739977	-1.589307	-0.542342	0.257674	-56.491163	-82.032909	-171.023858
16679	3667040	6.713024	-0.164089	1.677631	-1.623027	-0.538272	0.273760	-57.341068	-82.042918	-170.400431
16680	3667065	6.611340	-0.183000	1.585890	-1.662849	-0.545560	0.291525	-58.214391	-82.050031	-169.759132
16681	3667090	6.601752	-0.331061	1.471166	-1.709584	-0.552592	0.300551	-59.106594	-82.055196	-169.105538
16682	3667115	6.553577	-0.440828	1.398974	-1.756697	-0.551621	0.309949	-60.010213	-82.057678	-168.447257
16683	3667140	6.515208	-0.466584	1.300551	-1.802926	-0.548727	0.315282	-60.921060	-82.057885	-167.788347
16684	3667165	6.496012	-0.526809	1.232591	-1.836923	-0.552048	0.329294	-61.846492	-82.055098	-167.119625
16685	3667190	6.394445	-0.513956	1.098342	-1.869199	-0.548588	0.335187	-62.775464	-82.049839	-166.451990
16686	3667215	6.284279	-0.589328	1.048884	-1.898274	-0.542679	0.339064	-63.703538	-82.042174	-165.789457
16687	3667240	6.146590	-0.644178	1.007446	-1.919897	-0.534207	0.339772	-64.625726	-82.032443	-165.135980
16688	3667265	6.035117	-0.696140	0.940743	-1.927759	-0.544760	0.339723	-65.556767	-82.021892	-164.474686
16689	3667290	5.959408	-0.772980	0.888671	-1.910967	-0.549082	0.335154	-66.485328	-82.010704	-163.813448
16690	3667315	5.864605	-0.782203	0.794195	-1.885443	-0.547994	0.326281	-67.403134	-81.999114	-163.159353
16691	3667340	5.823429	-0.850582	0.693004	-1.854754	-0.544085	0.316747	-68.307066	-81.987165	-162.514818
16692	3667365	5.729653	-0.898730	0.712695	-1.806300	-0.550157	0.305714	-69.203387	-81.975594	-161.870942
16693	3667390	5.644235	-0.909732	0.717901	-1.756937	-0.554111	0.286189	-70.087280	-81.965449	-161.232458
16694	3667415	5.593502	-0.847673	0.671551	-1.692700	-0.571482	0.265332	-70.969398	-81.957547	-160.586451
16695	3667440	5.600708	-0.832126	0.554716	-1.638310	-0.595053	0.251758	-71.860702	-81.951196	-159.923297
16696	3667465	5.647916	-0.835698	0.397961	-1.592988	-0.606688	0.223445	-72.746844	-81.947777	-159.258791
16697	3667490	5.750317	-0.856915	0.184039	-1.555185	-0.613073	0.206624	-73.628147	-81.945494	-158.593700
16698	3667515	5.866561	-0.803922	-0.012345	-1.515574	-0.620103	0.197743	-74.507402	-81.943251	-157.924934
16699	3667540	5.948207	-0.770420	-0.149067	-1.483637	-0.613153	0.190894	-75.373196	-81.940298	-157.265147
16700	3667565	6.067101	-0.717596	-0.305578	-1.457035	-0.606218	0.186087	-76.226520	-81.936381	-156.614101
16701	3667590	6.113104	-0.641304	-0.483366	-1.430995	-0.589605	0.179362	-77.057374	-81.931510	-155.981976
16702	3667615	6.094332	-0.563673	-0.642550	-1.413364	-0.562565	0.172116	-77.856249	-81.925526	-155.379584
16703	3667640	6.092075	-0.450380	-0.780352	-1.411881	-0.521207	0.174821	-78.613660	-81.916830	-154.818852
16704	3667665	6.022241	-0.400388	-0.907729	-1.406191	-0.473827	0.174818	-79.321870	-81.905830	-154.306977
16705	3667690	5.919232	-0.321671	-0.983311	-1.395380	-0.413244	0.172815	-79.966482	-81.892702	-153.857764
16706	3667715	5.796833	-0.219832	-0.991002	-1.394802	-0.355529	0.175177	-80.552255	-81.877141	-153.467880
16709	3667740	5.730880	-0.113898	-0.990707	-1.388840	-0.291027	0.186397	-81.073443	-81.858009	-153.142361
16710	3667765	5.663489	0.016632	-0.953094	-1.374700	-0.235149	0.190391	-81.536013	-81.836707	-152.873997
16711	3667790	5.624889	0.093438	-0.889088	-1.362541	-0.180379	0.176802	-81.939020	-81.815917	-152.664034
16712	3667815	5.561463	0.150987	-0.826510	-1.344506	-0.141414	0.163274	-82.297535	-81.796066	-152.496386
16713	3667840	5.522855	0.256582	-0.746467	-1.321985	-0.098836	0.143817	-82.607388	-81.778055	-152.374651
16714	3667865	5.491191	0.348540	-0.698369	-1.281895	-0.069909	0.140239	-82.881732	-81.759940	-152.282987
16715	3667890	5.433431	0.476283	-0.654102	-1.233577	-0.044963	0.136282	-83.123450	-81.741894	-152.217293
16716	3667915	5.407169	0.547481	-0.574181	-1.173027	-0.028513	0.129834	-83.338837	-81.724437	-152.169401
16717	3667940	5.374117	0.607860	-0.536808	-1.103679	-0.020604	0.121935	-83.535309	-81.707963	-152.130621
16718	3667965	5.360255	0.657163	-0.470196	-1.022387	-0.007720	0.118506	-83.706753	-81.691754	-152.105366
16719	3667990	5.405383	0.638815	-0.353317	-0.925146	-0.012957	0.110523	-83.868152	-81.676752	-152.076184
16720	3668015	5.486326	0.597173	-0.249783	-0.811294	-0.011554	0.090875	-84.009372	-81.664510	-152.050842
16721	3668040	5.532692	0.481198	-0.131878	-0.677286	-0.024863	0.073352	-84.142488	-81.654959	-152.014360
16722	3668065	5.596794	0.304605	0.015055	-0.525776	-0.044183	0.048621	-84.270048	-81.649200	-151.961559
16723	3668090	5.658265	0.151530	0.128821	-0.365572	-0.070801	0.012292	-84.396900	-81.648978	-151.886279
16724	3668115	5.760925	-0.022373	0.281109	-0.205050	-0.096694	-0.022823	-84.522463	-81.654094	-151.788964
16725	3668140	5.819568	-0.193411	0.409477	-0.058018	-0.128534	-0.059000	-84.654935	-81.664770	-151.663482
16726	3668165	5.883670	-0.402931	0.536344	0.077705	-0.168592	-0.105856	-84.803186	-81.682612	-151.502409
16727	3668190	5.942570	-0.550283	0.583735	0.216948	-0.207464	-0.142153	-84.967041	-81.706065	-151.305419
16728	3668215	6.008429	-0.694777	0.600568	0.339507	-0.244394	-0.186387	-85.146761	-81.736199	-151.074554
16729	3668240	6.150259	-0.788144	0.549868	0.440708	-0.270180	-0.223683	-85.336087	-81.771858	-150.819470
16730	3668265	6.335994	-0.916086	0.548243	0.547096	-0.286265	-0.262086	-85.525072	-81.813063	-150.549359
16731	3668290	6.554713	-1.049617	0.570495	0.639962	-0.301878	-0.300354	-85.715792	-81.859776	-150.264088
16732	3668315	6.762415	-1.176281	0.596792	0.720231	-0.313003	-0.334656	-85.906290	-81.911369	-149.967341
16733	3668340	7.008650	-1.297543	0.644390	0.784192	-0.312367	-0.366873	-86.088056	-81.967425	-149.670320
16734	3668365	7.275715	-1.323826	0.665704	0.853663	-0.317133	-0.392315	-86.266391	-82.027031	-149.366757
16735	3668390	7.505618	-1.356930	0.673713	0.919350	-0.313798	-0.411582	-86.434267	-82.089233	-149.064300
16736	3668415	7.738157	-1.405350	0.738796	0.954266	-0.309678	-0.420496	-86.595844	-82.152551	-148.763081
16737	3668440	7.965171	-1.356352	0.849341	0.971045	-0.305377	-0.418903	-86.754550	-82.215492	-148.462497
16738	3668465	8.263632	-1.391329	0.983591	0.954894	-0.302504	-0.410073	-86.916779	-82.277033	-148.160737
16739	3668490	8.467231	-1.373885	1.090053	0.921189	-0.312328	-0.391737	-87.098990	-82.335901	-147.843729
16740	3668515	8.703903	-1.316627	1.204661	0.867303	-0.315328	-0.364550	-87.297158	-82.390756	-147.518328
16741	3668540	8.844319	-1.202864	1.295489	0.784518	-0.326446	-0.326996	-87.524934	-82.440153	-147.175183
16742	3668565	9.014993	-1.061702	1.412959	0.683811	-0.329816	-0.282483	-87.776419	-82.483008	-146.822709
16743	3668590	9.176066	-0.957572	1.503724	0.561063	-0.338307	-0.231737	-88.060087	-82.518427	-146.455541
16744	3668615	9.321686	-0.964960	1.639298	0.434433	-0.348111	-0.175434	-88.377236	-82.545573	-146.072782
16745	3668640	9.441235	-1.007951	1.718935	0.293475	-0.358428	-0.132315	-88.729749	-82.566295	-145.674884
16746	3668665	9.564799	-1.056600	1.845082	0.157043	-0.371689	-0.080781	-89.119364	-82.579338	-145.259293
16747	3668690	9.705078	-1.098049	1.908767	0.022280	-0.385822	-0.044207	-89.545581	-82.586782	-144.826269
16748	3668715	9.761403	-1.128454	1.944607	-0.110561	-0.407358	-0.013639	-90.015131	-82.589421	-144.368568
16749	3668740	9.802722	-1.139400	1.937988	-0.226907	-0.418524	0.014691	-90.513942	-82.587497	-143.898337
16750	3668765	9.875874	-1.051340	1.925005	-0.308186	-0.425339	0.037666	-91.031160	-82.581732	-143.421281
16751	3668790	9.922921	-1.001590	1.866748	-0.361410	-0.424743	0.046699	-91.554269	-82.574117	-142.945964
16752	3668815	10.051109	-0.968529	1.836413	-0.393049	-0.427137	0.061938	-92.082574	-82.563746	-142.469768
16753	3668840	10.210904	-1.024708	1.787164	-0.410126	-0.425302	0.066952	-92.609932	-82.552101	-141.997182
16754	3668865	10.377553	-1.032907	1.777928	-0.406824	-0.412679	0.067995	-93.121372	-82.539843	-141.540159
16755	3668890	10.530488	-0.984823	1.778194	-0.386280	-0.403379	0.058638	-93.618757	-82.528479	-141.094332
16756	3668915	10.665552	-0.929803	1.773167	-0.343698	-0.387608	0.059919	-94.090999	-82.516599	-140.667469
16757	3668940	10.800553	-0.861165	1.796040	-0.303011	-0.375620	0.048187	-94.544297	-82.506071	-140.254054
16758	3668965	10.931413	-0.767831	1.837613	-0.253430	-0.354603	0.050093	-94.966316	-82.495109	-139.865015
16759	3668990	11.044431	-0.651084	1.872602	-0.205672	-0.338690	0.052617	-95.362841	-82.483630	-139.494780
16760	3669015	11.109121	-0.570210	1.937998	-0.157027	-0.321560	0.063708	-95.731184	-82.470492	-139.145661
16761	3669040	11.217925	-0.501601	1.974186	-0.121123	-0.300865	0.068611	-96.070667	-82.456670	-138.820728
16762	3669065	11.334983	-0.424766	2.017045	-0.089449	-0.282747	0.079955	-96.383591	-82.441273	-138.517998
16763	3669090	11.451976	-0.375511	2.075725	-0.061378	-0.262488	0.084734	-96.668967	-82.425317	-138.238991
16764	3669115	11.560815	-0.345293	2.077242	-0.050147	-0.244211	0.092234	-96.930679	-82.408441	-137.981897
16765	3669140	11.782358	-0.392244	2.125024	-0.035541	-0.217412	0.100648	-97.159900	-82.390683	-137.755787
16766	3669165	11.959803	-0.411801	2.194175	-0.021744	-0.186852	0.104356	-97.353156	-82.372841	-137.563959
16767	3669190	12.113990	-0.380396	2.238228	0.003533	-0.157021	0.107270	-97.509929	-82.355060	-137.405280
16768	3669215	12.280589	-0.325530	2.285023	0.037700	-0.124367	0.111835	-97.625557	-82.337212	-137.282787
16769	3669240	12.414068	-0.313429	2.338259	0.069138	-0.084808	0.115867	-97.694343	-82.319506	-137.203393
16770	3669265	12.541966	-0.301384	2.418086	0.103760	-0.058970	0.130202	-97.728659	-82.300251	-137.153775
16771	3669290	12.687749	-0.370290	2.453807	0.131728	-0.032976	0.141762	-97.729900	-82.279855	-137.133489
16772	3669315	12.869321	-0.466725	2.486815	0.166363	-0.009221	0.153825	-97.699160	-82.258224	-137.140025
16773	3669340	13.067529	-0.506714	2.506744	0.191386	0.020613	0.157306	-97.633845	-82.236648	-137.178281
16774	3669365	13.399361	-0.598819	2.482715	0.217900	0.047012	0.157510	-97.537577	-82.215535	-137.243947
16775	3669390	13.463610	-0.805329	2.553804	0.253445	0.070974	0.142546	-97.413855	-82.196977	-137.332188
16776	3669415	13.116337	-0.882474	2.589304	0.279753	0.100116	0.116451	-97.259683	-82.182654	-137.446863
16777	3669440	12.788551	-0.804285	2.647769	0.297652	0.126316	0.113632	-97.077221	-82.169130	-137.588010
16778	3669465	12.588756	-0.729024	2.735513	0.324799	0.130424	0.133753	-96.884676	-82.152754	-137.735415
16779	3669490	12.616530	-0.813747	2.590460	0.351603	0.139527	0.185914	-96.673318	-82.129042	-137.897943
16780	3669515	12.669108	-1.054821	2.343947	0.381380	0.169683	0.226918	-96.422585	-82.099924	-138.095376
16781	3669540	12.955632	-1.268854	2.187987	0.418726	0.223766	0.259917	-96.109756	-82.066794	-138.350667
16782	3669565	13.201436	-1.678901	2.258426	0.445870	0.282185	0.270432	-95.734836	-82.032819	-138.664746
16783	3669590	13.423579	-2.061853	2.425914	0.466883	0.287394	0.241037	-95.357371	-82.002823	-138.978379
16784	3669615	13.550083	-2.306335	2.360071	0.470366	0.260671	0.180952	-95.013849	-81.980802	-139.256683
16785	3669640	13.498419	-2.283345	2.089163	0.469463	0.238289	0.125071	-94.700009	-81.966240	-139.505724
16786	3669665	13.328707	-2.063592	1.782923	0.475763	0.236081	0.092253	-94.391084	-81.956150	-139.748897
16787	3669690	13.158732	-1.948492	1.517519	0.498803	0.261480	0.095710	-94.053662	-81.945642	-140.017524
16788	3669715	12.952424	-1.993370	1.385749	0.538051	0.300477	0.119254	-93.669965	-81.931931	-140.326641
16789	3669740	12.734938	-2.107101	1.273613	0.577083	0.342566	0.160433	-93.237683	-81.912365	-140.679772
16790	3669765	12.573681	-2.278784	1.225114	0.622235	0.392071	0.201215	-92.749136	-81.886938	-141.083222
16791	3669790	12.523842	-2.533032	1.189621	0.662409	0.435434	0.237082	-92.212838	-81.856139	-141.529123
16792	3669815	12.551091	-2.768067	1.165009	0.691118	0.469995	0.257009	-91.640550	-81.822064	-142.006699
16793	3669840	12.629625	-2.891528	1.068920	0.721120	0.502879	0.268196	-91.036106	-81.785784	-142.513028
16794	3669865	12.826587	-3.054798	0.974177	0.745267	0.540714	0.267343	-90.395769	-81.748912	-143.052176
16795	3669890	12.982511	-3.087271	0.825382	0.776766	0.580462	0.258999	-89.717112	-81.712355	-143.625537
16796	3669915	13.137239	-3.041289	0.658227	0.817500	0.620699	0.250411	-88.998092	-81.675971	-144.233310
16797	3669940	13.234055	-2.950135	0.537719	0.857480	0.662309	0.259964	-88.239526	-81.636936	-144.875859
16798	3669965	13.303500	-2.828512	0.377398	0.910627	0.715116	0.266560	-87.429086	-81.595397	-145.563212
16799	3669990	13.411067	-2.804999	0.332325	0.953260	0.764276	0.280501	-86.573483	-81.550043	-146.290126
16800	3670015	13.465158	-2.679551	0.251757	0.989151	0.810029	0.296739	-85.678176	-81.500308	-147.051566
16801	3670040	13.509537	-2.626970	0.164198	1.004926	0.862565	0.307602	-84.742052	-81.446602	-147.852605
16802	3670065	13.574443	-2.625345	0.100513	1.016702	0.914378	0.304753	-83.766222	-81.390585	-148.692208
16803	3670090	13.659959	-2.615462	0.050109	1.001674	0.966633	0.298949	-82.755064	-81.332351	-149.569849
16804	3670115	13.668528	-2.495633	-0.010579	0.964669	1.020334	0.282501	-81.709694	-81.273054	-150.487117
16805	3670140	13.704587	-2.355239	-0.035344	0.930730	1.075824	0.269628	-80.630520	-81.211799	-151.444137
16806	3670165	13.797372	-2.096575	-0.078332	0.868859	1.121645	0.266135	-79.532514	-81.147149	-152.429346
16807	3670190	13.913250	-1.955000	-0.079095	0.798469	1.169757	0.268971	-78.417444	-81.077877	-153.442209
16808	3670215	13.957523	-1.814695	-0.074701	0.740561	1.206266	0.271015	-77.295019	-81.004169	-154.470644
16811	3670240	13.956419	-1.613971	-0.068665	0.690292	1.242886	0.285374	-76.169224	-80.924135	-155.510472
16812	3670265	13.857492	-1.464049	-0.074925	0.640631	1.267799	0.295733	-75.050744	-80.838593	-156.550335
16813	3670290	13.854888	-1.310146	-0.041158	0.604801	1.290969	0.310029	-73.941539	-80.747003	-157.586260
16814	3670315	13.824715	-1.252280	-0.047711	0.565532	1.313526	0.317368	-72.841928	-80.650295	-158.617968
16815	3670340	13.788984	-1.182211	-0.040823	0.532112	1.329791	0.324264	-71.758208	-80.548787	-159.639188
16816	3670365	13.771000	-1.193288	-0.015645	0.500264	1.341189	0.326599	-70.693174	-80.443328	-160.646394
16817	3670390	13.706183	-1.272963	-0.025313	0.489873	1.349769	0.322312	-69.644481	-80.334980	-161.638853
16818	3670415	13.638473	-1.398205	0.004850	0.479356	1.355314	0.304455	-68.610040	-80.225733	-162.618223
16819	3670440	13.519764	-1.458958	0.076328	0.479813	1.361453	0.280593	-67.586309	-80.116390	-163.587458
16820	3670465	13.408039	-1.492159	0.127950	0.477821	1.357860	0.263888	-66.582184	-80.006540	-164.537401
16821	3670490	13.249509	-1.554049	0.146311	0.491099	1.353893	0.237030	-65.591614	-79.897600	-165.471966
16822	3670515	13.035946	-1.584305	0.154020	0.496981	1.345066	0.214231	-64.619138	-79.789364	-166.387130
16823	3670540	12.773029	-1.645825	0.069964	0.507085	1.336148	0.194319	-63.664937	-79.681568	-167.283041
16824	3670565	12.538871	-1.710401	0.068320	0.513846	1.336705	0.174318	-62.721558	-79.573665	-168.167272
16825	3670590	12.228930	-1.776267	0.050669	0.514160	1.336854	0.152856	-61.789108	-79.465880	-169.040649
16826	3670615	11.826620	-1.856061	0.076733	0.520307	1.323757	0.123459	-60.871704	-79.360124	-169.897662
16827	3670640	11.512578	-1.883541	0.089715	0.536910	1.316547	0.090848	-59.962292	-79.256459	-170.744880
16828	3670665	11.044066	-1.864608	0.199850	0.559144	1.291626	0.047173	-59.065853	-79.157533	-171.575935
16829	3670690	10.647207	-1.947209	0.241809	0.614073	1.257975	0.008537	-58.183451	-79.063438	-172.384951
16830	3670715	10.302926	-1.942937	0.228296	0.678634	1.227917	-0.029330	-57.309659	-78.973878	-173.175581
16831	3670740	10.015309	-1.970070	0.131031	0.764320	1.191906	-0.053254	-56.449753	-78.887757	-173.940238
16832	3670765	9.799122	-2.060515	0.056207	0.830503	1.168344	-0.080828	-55.595820	-78.804611	-174.689366
16833	3670790	9.628674	-2.099743	-0.098108	0.914412	1.149128	-0.107177	-54.742203	-78.723986	-175.426130
16834	3670815	9.535218	-2.217472	-0.247451	0.982837	1.137912	-0.138608	-53.883201	-78.645797	-176.158180
16835	3670840	9.558664	-2.294331	-0.290183	1.057390	1.123639	-0.161618	-53.023118	-78.569348	-176.881051
16836	3670865	9.583514	-2.321703	-0.336740	1.170344	1.109756	-0.188756	-52.153551	-78.495049	-177.597282
16837	3670890	9.647298	-2.290782	-0.505302	1.301321	1.102255	-0.211318	-51.269806	-78.421782	-178.309025
16838	3670915	9.740131	-2.300907	-0.743168	1.432930	1.106731	-0.225061	-50.368680	-78.347405	-179.019082
16839	3670940	9.820341	-2.267475	-0.855885	1.570799	1.110203	-0.232978	-49.453073	-78.271340	-179.724324
16840	3670965	9.910247	-2.346516	-1.068726	1.707702	1.126087	-0.240211	-48.517023	-78.192264	179.569385
16841	3670990	10.064595	-2.453501	-1.158019	1.839153	1.147759	-0.246671	-47.559374	-78.109431	178.860056
16842	3671015	10.218820	-2.501743	-1.164664	1.969866	1.169181	-0.252574	-46.581234	-78.022657	178.149020
16843	3671040	10.319381	-2.593402	-1.259359	2.109744	1.179018	-0.258829	-45.587949	-77.933056	177.442430
16844	3671065	10.439443	-2.738598	-1.425825	2.220274	1.202101	-0.270775	-44.575079	-77.839769	176.731761
16845	3671090	10.573151	-2.877060	-1.559077	2.301478	1.221041	-0.291770	-43.545210	-77.743980	176.015348
16846	3671115	10.669438	-2.944638	-1.532647	2.336505	1.258228	-0.304007	-42.501468	-77.642747	175.289863
16847	3671140	10.762805	-2.928629	-1.404943	2.358676	1.273094	-0.321291	-41.454428	-77.538802	174.563708
16848	3671165	10.790161	-2.876804	-1.297110	2.373617	1.277805	-0.325551	-40.415982	-77.431925	173.848254
16849	3671190	10.780255	-2.797487	-1.157457	2.369514	1.271270	-0.334976	-39.391028	-77.323858	173.145724
16850	3671215	10.734700	-2.734528	-1.082860	2.354607	1.257544	-0.325758	-38.392727	-77.213780	172.468228
16851	3671240	10.738664	-2.679938	-0.973788	2.307421	1.232474	-0.318416	-37.428847	-77.103367	171.818609
16852	3671265	10.743884	-2.632510	-0.814210	2.226944	1.202594	-0.301268	-36.509789	-76.992540	171.202866
16853	3671290	10.813671	-2.565838	-0.614725	2.127783	1.153979	-0.277779	-35.647064	-76.883227	170.630097
16854	3671315	10.887798	-2.501729	-0.484268	2.024126	1.098865	-0.240982	-34.848565	-76.775438	170.107936
16855	3671340	10.930435	-2.451025	-0.429590	1.918347	1.041485	-0.202182	-34.114818	-76.669713	169.636361
16856	3671365	11.075867	-2.489023	-0.221039	1.804877	0.980837	-0.168641	-33.443600	-76.567218	169.212149
16857	3671390	11.122209	-2.559735	-0.075186	1.694493	0.914882	-0.134500	-32.834806	-76.468869	168.835693
16858	3671415	11.215267	-2.615559	0.141245	1.572469	0.835090	-0.095297	-32.295280	-76.376243	168.512467
16859	3671440	11.261571	-2.601265	0.356600	1.444718	0.753728	-0.065725	-31.819822	-76.290591	168.236119
16860	3671465	11.236498	-2.533048	0.508343	1.321142	0.665303	-0.038074	-31.407363	-76.213145	168.006309
16861	3671490	11.150749	-2.460856	0.702489	1.193746	0.572105	-0.012806	-31.057192	-76.144877	167.821780
16862	3671515	11.037584	-2.340443	0.870227	1.067999	0.474987	0.011513	-30.768397	-76.086497	167.681934
16863	3671540	10.887366	-2.167653	1.014193	0.962957	0.367692	0.029165	-30.536621	-76.039910	167.585239
16864	3671565	10.809951	-2.040425	1.211226	0.866871	0.260201	0.042827	-30.357688	-76.005521	167.528798
16865	3671590	10.721762	-1.873051	1.328656	0.791650	0.141609	0.052035	-30.228932	-75.985098	167.512961
16866	3671615	10.702292	-1.784176	1.460430	0.727393	0.015739	0.054677	-30.147148	-75.980052	167.536089
16867	3671640	10.703548	-1.701967	1.564328	0.683868	-0.108503	0.048158	-30.104197	-75.990884	167.592776
16868	3671665	10.693792	-1.667841	1.630887	0.668438	-0.236517	0.032598	-30.092672	-76.018704	167.679568
16869	3671690	10.722638	-1.644568	1.676176	0.667551	-0.362270	0.015441	-30.109298	-76.063339	167.795222
16870	3671715	10.703397	-1.604714	1.681636	0.690322	-0.491339	-0.006972	-30.149447	-76.125553	167.938471
16871	3671740	10.744662	-1.581469	1.714960	0.725351	-0.602834	-0.029247	-30.206943	-76.203156	168.104682
16872	3671765	10.808149	-1.474229	1.728664	0.771480	-0.722318	-0.066970	-30.275384	-76.298223	168.288901
16873	3671790	10.845509	-1.338119	1.738388	0.811381	-0.838064	-0.094985	-30.360244	-76.409568	168.495818
16874	3671815	10.826352	-1.218538	1.750819	0.837385	-0.950055	-0.137189	-30.456018	-76.537724	168.717707
16875	3671840	10.789488	-1.006702	1.756770	0.869059	-1.055071	-0.174914	-30.563023	-76.681499	168.955658
16876	3671865	10.628935	-0.724519	1.695170	0.900543	-1.152719	-0.210819	-30.680927	-76.839821	169.209290
16877	3671890	10.491829	-0.412049	1.621776	0.911780	-1.242106	-0.236158	-30.816709	-77.010874	169.482758
16878	3671915	10.398473	-0.278505	1.582312	0.907669	-1.307947	-0.257905	-30.968160	-77.191458	169.771536
16879	3671940	10.390017	-0.319919	1.612725	0.890618	-1.371117	-0.274106	-31.140448	-77.380814	170.078926
16880	3671965	10.382659	-0.435893	1.731893	0.844061	-1.429732	-0.296062	-31.334420	-77.578762	170.401463
16881	3671990	10.365464	-0.545335	1.920210	0.776990	-1.493473	-0.312022	-31.559533	-77.785436	170.745792
16882	3672015	10.351136	-0.710853	2.060459	0.695581	-1.557742	-0.314334	-31.827689	-77.999793	171.121992
16883	3672040	10.387731	-0.993173	2.148592	0.609167	-1.623893	-0.314069	-32.144387	-78.221767	171.534795
16884	3672065	10.387290	-1.279252	2.159530	0.532414	-1.683128	-0.296860	-32.518630	-78.449076	171.994794
16885	3672090	10.305941	-1.544240	2.057699	0.481239	-1.736355	-0.272779	-32.952123	-78.680272	172.507387
16886	3672115	10.133674	-1.743349	1.975858	0.470409	-1.783158	-0.243461	-33.443523	-78.913946	173.077059
16887	3672140	9.817111	-1.887056	1.810470	0.479585	-1.814060	-0.221543	-33.982845	-79.148560	173.696383
16888	3672165	9.537420	-2.119048	1.724483	0.506612	-1.845022	-0.222582	-34.556509	-79.385768	174.354112
16889	3672190	9.168480	-2.205179	1.624357	0.553127	-1.866247	-0.236933	-35.151837	-79.625384	175.040137
16890	3672215	8.791194	-2.268134	1.560159	0.586214	-1.882734	-0.268024	-35.760017	-79.868176	175.743528
16891	3672240	8.402973	-2.252701	1.520135	0.618494	-1.898441	-0.318903	-36.369624	-80.115739	176.452507
16892	3672265	8.006576	-2.139736	1.492370	0.653770	-1.906968	-0.376369	-36.973472	-80.367879	177.160233
16893	3672290	7.672039	-2.048922	1.485855	0.695037	-1.919454	-0.441266	-37.568488	-80.625803	177.864462
16894	3672315	7.344414	-1.912804	1.511382	0.716715	-1.923516	-0.500808	-38.157443	-80.888197	178.565156
16895	3672340	7.052728	-1.672264	1.554545	0.747914	-1.932248	-0.544023	-38.754041	-81.154251	179.277607
16896	3672365	6.843761	-1.384836	1.558099	0.777813	-1.937800	-0.584330	-39.360525	-81.423379	-179.996125
