PacketCounter	SampleTimeFine	Acc_X	Acc_Y	Acc_Z	Gyr_X	Gyr_Y	Gyr_Z	Roll	Pitch	Yaw
38050	4190815	9.520864	-0.857041	1.897357	-0.042608	-0.102991	0.000823	-20.893435	-77.414822	164.842142
38051	4190840	9.527748	-0.852959	1.900031	-0.062889	-0.101323	0.003326	-20.926895	-77.429049	164.867180
38052	4190865	9.496022	-0.844751	1.925303	-0.079194	-0.108837	0.004408	-20.965136	-77.444222	164.894721
38053	4190890	9.476767	-0.821423	1.934646	-0.085379	-0.112017	0.005122	-21.005505	-77.459779	164.923534
38054	4190915	9.453376	-0.826842	1.923964	-0.088158	-0.117056	0.005801	-21.048530	-77.476006	164.953030
38055	4190940	9.436910	-0.759495	1.937487	-0.088021	-0.117506	0.005740	-21.091101	-77.492256	164.983707
38056	4190965	9.442488	-0.747056	1.916289	-0.083800	-0.121197	0.007363	-21.135001	-77.508911	165.016362
38057	4190990	9.439662	-0.777378	1.926816	-0.076547	-0.120440	0.007291	-21.177743	-77.525463	165.048893
38058	4191015	9.469938	-0.808946	1.916096	-0.071937	-0.115958	0.003834	-21.217381	-77.541625	165.077294
38059	4191040	9.492055	-0.829406	1.870861	-0.068443	-0.118436	0.005199	-21.257418	-77.558008	165.108239
38060	4191065	9.485101	-0.906384	1.854670	-0.056151	-0.114815	0.004596	-21.294566	-77.573934	165.138028
38061	4191090	9.465813	-0.958508	1.822593	-0.055102	-0.106081	0.002943	-21.328579	-77.588777	165.164758
38062	4191115	9.440997	-0.988752	1.818489	-0.042935	-0.102134	0.002846	-21.360532	-77.603131	165.189523
38063	4191140	9.428599	-1.007940	1.810449	-0.042355	-0.098671	-0.004452	-21.386604	-77.617365	165.209990
38064	4191165	9.468620	-0.999613	1.777292	-0.046299	-0.088690	-0.013115	-21.405647	-77.630719	165.222682
38065	4191190	9.450712	-1.007846	1.777236	-0.050762	-0.086035	-0.015375	-21.423355	-77.643836	165.233350
38066	4191215	9.482272	-1.014912	1.817080	-0.060010	-0.080349	-0.012533	-21.443406	-77.656081	165.243402
38067	4191240	9.472620	-1.006658	1.825111	-0.068836	-0.086424	-0.013168	-21.465204	-77.669133	165.255607
38068	4191265	9.461569	-0.991608	1.849048	-0.075261	-0.086999	-0.005542	-21.492752	-77.681861	165.272755
38069	4191290	9.451936	-0.940864	1.881074	-0.078858	-0.094138	-0.008230	-21.520939	-77.695679	165.290028
38070	4191315	9.464325	-0.932619	1.885098	-0.081868	-0.099739	0.001077	-21.557277	-77.709788	165.313528
38071	4191340	9.469873	-0.891408	1.893214	-0.086024	-0.106932	0.007208	-21.599150	-77.724492	165.343756
38072	4191365	9.452010	-0.850149	1.901310	-0.089088	-0.114152	0.007442	-21.643445	-77.740141	165.376012
38073	4191390	9.472709	-0.833645	1.897374	-0.094457	-0.128818	0.014009	-21.696213	-77.757389	165.416148
38074	4191415	9.511262	-0.867959	1.878698	-0.097036	-0.138469	0.014126	-21.752548	-77.775941	165.457875
38075	4191440	9.543000	-0.854168	1.861496	-0.108643	-0.146610	0.020061	-21.815716	-77.795217	165.506569
38076	4191465	9.566399	-0.880235	1.848114	-0.109427	-0.155921	0.021715	-21.882492	-77.815631	165.558835
38077	4191490	9.563671	-0.928217	1.810808	-0.107491	-0.163539	0.017549	-21.948513	-77.837267	165.610608
38078	4191515	9.581621	-0.956979	1.776149	-0.105348	-0.168000	0.006531	-22.009387	-77.860109	165.655737
38079	4191540	9.559647	-0.960986	1.748209	-0.102860	-0.171837	0.006996	-22.070713	-77.883390	165.703378
38080	4191565	9.587190	-0.985696	1.730900	-0.098868	-0.175905	-0.003240	-22.126361	-77.907752	165.745792
38081	4191590	9.592614	-1.026973	1.745350	-0.089887	-0.178707	-0.009701	-22.177618	-77.932827	165.785027
38082	4191615	9.581592	-1.037986	1.734700	-0.078537	-0.180423	-0.012147	-22.227003	-77.958289	165.822299
38083	4191640	9.571962	-1.064015	1.720014	-0.071028	-0.180186	-0.020719	-22.269445	-77.984144	165.855276
38084	4191665	9.543059	-1.065351	1.714634	-0.067453	-0.178391	-0.023992	-22.309033	-78.009933	165.885856
38085	4191690	9.552725	-1.040658	1.718723	-0.054550	-0.187281	-0.031051	-22.344794	-78.037281	165.914409
38086	4191715	9.552820	-1.039110	1.680204	-0.053485	-0.188637	-0.035547	-22.378749	-78.065084	165.939538
38087	4191740	9.555582	-1.055572	1.660251	-0.050601	-0.179127	-0.036930	-22.408431	-78.091665	165.962452
38088	4191765	9.539061	-1.062445	1.661484	-0.045583	-0.175525	-0.039114	-22.435201	-78.117887	165.983121
38089	4191790	9.583175	-1.047286	1.648330	-0.046937	-0.177071	-0.044198	-22.459466	-78.144589	166.001030
38090	4191815	9.597032	-1.021066	1.628474	-0.051260	-0.172605	-0.041252	-22.485823	-78.170572	166.018688
38091	4191840	9.601164	-1.044409	1.616441	-0.063615	-0.170974	-0.036211	-22.516131	-78.196027	166.040327
38092	4191865	9.566830	-1.031884	1.584599	-0.061703	-0.165473	-0.039944	-22.542460	-78.220956	166.058179
38093	4191890	9.575189	-0.974112	1.576821	-0.066891	-0.160220	-0.039989	-22.568209	-78.245191	166.074679
38094	4191915	9.572476	-0.982281	1.555515	-0.068919	-0.150789	-0.042363	-22.591026	-78.268343	166.086105
38095	4191940	9.558689	-0.979559	1.566162	-0.078931	-0.141911	-0.039977	-22.613811	-78.290154	166.097813
38096	4191965	9.610947	-0.979696	1.594096	-0.087011	-0.133595	-0.036870	-22.637588	-78.310692	166.109352
38097	4191990	9.634480	-0.945222	1.567642	-0.094286	-0.126059	-0.030208	-22.664721	-78.329866	166.123251
38098	4192015	9.635852	-0.950685	1.567633	-0.092956	-0.119866	-0.026776	-22.692983	-78.348067	166.136698
38099	4192040	9.587576	-0.979649	1.583428	-0.101027	-0.111979	-0.030209	-22.717434	-78.365378	166.146872
38100	4192065	9.600108	-0.941023	1.549036	-0.106567	-0.105213	-0.023469	-22.745239	-78.381421	166.159660
38101	4192090	9.591836	-0.916303	1.562415	-0.113548	-0.100638	-0.025876	-22.771317	-78.396992	166.169663
38102	4192115	9.637252	-0.934171	1.567694	-0.115041	-0.090563	-0.024183	-22.796745	-78.411175	166.176965
38103	4192140	9.649701	-0.935496	1.545084	-0.118803	-0.085786	-0.021927	-22.822189	-78.424564	166.185552
38104	4192165	9.647006	-0.920315	1.533159	-0.131725	-0.081153	-0.025271	-22.846107	-78.437526	166.190691
38105	4192190	9.593334	-0.902413	1.522590	-0.138336	-0.077868	-0.024059	-22.870893	-78.449987	166.195749
38106	4192215	9.589248	-0.895483	1.509315	-0.138015	-0.069666	-0.015181	-22.899899	-78.460909	166.203325
38107	4192240	9.557563	-0.916065	1.501270	-0.148211	-0.062956	-0.016220	-22.927161	-78.470964	166.209466
38108	4192265	9.499681	-0.928480	1.513115	-0.159191	-0.059476	-0.011235	-22.958298	-78.480281	166.217957
38109	4192290	9.494216	-0.932505	1.490558	-0.167535	-0.049770	-0.013027	-22.986838	-78.488418	166.222577
38110	4192315	9.506566	-0.924359	1.513154	-0.175656	-0.047106	-0.011061	-23.017848	-78.496132	166.226675
38111	4192340	9.487297	-0.922958	1.509144	-0.188513	-0.043339	-0.008562	-23.050563	-78.503169	166.232489
38112	4192365	9.491422	-0.935341	1.506448	-0.192387	-0.040324	-0.008342	-23.083166	-78.509796	166.237623
38113	4192390	9.492745	-0.965560	1.507683	-0.201155	-0.039729	-0.003782	-23.119840	-78.516088	166.245629
38114	4192415	9.524462	-0.932619	1.509158	-0.206535	-0.034468	-0.003447	-23.156821	-78.521708	166.251286
38115	4192440	9.545097	-0.936752	1.521080	-0.213249	-0.037575	0.001891	-23.198358	-78.527394	166.262486
38116	4192465	9.545019	-0.962959	1.536932	-0.217637	-0.041831	-0.004730	-23.237438	-78.534013	166.270538
38117	4192490	9.536841	-0.943597	1.511762	-0.230555	-0.042887	-0.003879	-23.279243	-78.540721	166.279481
38118	4192515	9.557499	-0.946362	1.509090	-0.242060	-0.041740	-0.005177	-23.322325	-78.547392	166.286152
38119	4192540	9.569908	-0.942183	1.503862	-0.260270	-0.039083	-0.004497	-23.366979	-78.553633	166.293659
38120	4192565	9.564454	-0.929791	1.490554	-0.273672	-0.040014	-0.007775	-23.411713	-78.560181	166.299290
38121	4192590	9.545183	-0.928375	1.490565	-0.286283	-0.037457	-0.001027	-23.461948	-78.566008	166.308689
38122	4192615	9.517599	-0.932584	1.503810	-0.290176	-0.039461	0.001539	-23.515775	-78.571992	166.319272
38123	4192640	9.529981	-0.929855	1.507831	-0.298579	-0.044408	0.007695	-23.575472	-78.578230	166.336527
38124	4192665	9.505089	-0.964288	1.528963	-0.309338	-0.043634	0.003228	-23.633627	-78.584618	166.350637
38125	4192690	9.469247	-0.991818	1.524848	-0.315723	-0.046009	-0.001825	-23.690129	-78.591605	166.362127
38126	4192715	9.445718	-1.034495	1.551268	-0.326011	-0.054340	0.000693	-23.752947	-78.599580	166.376624
38129	4192740	9.448458	-1.050967	1.547232	-0.324865	-0.054014	0.001273	-23.815157	-78.607433	166.392600
38130	4192765	9.451095	-1.067643	1.584375	-0.320309	-0.060166	-0.007431	-23.872874	-78.616593	166.404659
38131	4192790	9.489673	-1.077196	1.568427	-0.317009	-0.060329	-0.009435	-23.928917	-78.625888	166.415491
38132	4192815	9.484096	-1.084179	1.593652	-0.307068	-0.068298	-0.010875	-23.985751	-78.636350	166.426626
38133	4192840	9.497880	-1.119836	1.572277	-0.302653	-0.074619	-0.013816	-24.041141	-78.647766	166.438889
38134	4192865	9.510403	-1.096331	1.532499	-0.296158	-0.071850	-0.016241	-24.093280	-78.658959	166.448785
38135	4192890	9.528306	-1.071631	1.549849	-0.292403	-0.073451	-0.020140	-24.142866	-78.670587	166.456624
38136	4192915	9.548933	-1.071680	1.557859	-0.288388	-0.072862	-0.019096	-24.193250	-78.682119	166.463883
38137	4192940	9.524165	-1.079876	1.548528	-0.280541	-0.071929	-0.024047	-24.238253	-78.693776	166.468781
38138	4192965	9.532458	-1.071597	1.535265	-0.282979	-0.060362	-0.025028	-24.279607	-78.703980	166.469602
38139	4192990	9.537984	-1.068823	1.529965	-0.283071	-0.061011	-0.029595	-24.318216	-78.714537	166.467610
38140	4193015	9.496755	-1.091998	1.483384	-0.287473	-0.054578	-0.031416	-24.355213	-78.724405	166.461324
38141	4193040	9.513239	-1.066020	1.512695	-0.294520	-0.046627	-0.035092	-24.387661	-78.733411	166.451377
38142	4193065	9.495437	-1.052108	1.483499	-0.301288	-0.041530	-0.040860	-24.415800	-78.742094	166.436050
38143	4193090	9.484401	-1.048066	1.491502	-0.305447	-0.036857	-0.040901	-24.443127	-78.750172	166.419287
38144	4193115	9.506434	-1.031576	1.500857	-0.304653	-0.030112	-0.039183	-24.470296	-78.757314	166.400448
38145	4193140	9.520142	-1.035793	1.527405	-0.303186	-0.022571	-0.039558	-24.493929	-78.763452	166.380250
38146	4193165	9.524322	-1.004147	1.528838	-0.302649	-0.021915	-0.042599	-24.515294	-78.769687	166.357819
38147	4193190	9.521532	-1.022034	1.531425	-0.301130	-0.020541	-0.048490	-24.532160	-78.776095	166.331023
38148	4193215	9.507739	-1.011128	1.550057	-0.300509	-0.018527	-0.046457	-24.550505	-78.782166	166.303775
38149	4193240	9.493950	-0.991917	1.563409	-0.302394	-0.020391	-0.047298	-24.568281	-78.788487	166.277723
38150	4193265	9.467712	-0.964566	1.612618	-0.298209	-0.024353	-0.050621	-24.584457	-78.795523	166.250653
38151	4193290	9.463554	-0.957773	1.627262	-0.298385	-0.028156	-0.056523	-24.597913	-78.803408	166.220784
38152	4193315	9.460809	-0.974238	1.615265	-0.295436	-0.032365	-0.055481	-24.613738	-78.811825	166.191696
38153	4193340	9.464988	-1.011184	1.569941	-0.291193	-0.038706	-0.055569	-24.629952	-78.821030	166.165690
38154	4193365	9.444387	-1.008349	1.546049	-0.299291	-0.041272	-0.060646	-24.644745	-78.830873	166.137055
38155	4193390	9.458100	-1.042746	1.549937	-0.304389	-0.036891	-0.059102	-24.659949	-78.840055	166.108095
38156	4193415	9.455473	-1.001394	1.528802	-0.304166	-0.035632	-0.060306	-24.674793	-78.849192	166.076718
38157	4193440	9.441692	-0.989067	1.535465	-0.304578	-0.039658	-0.064242	-24.687444	-78.859045	166.045130
38158	4193465	9.459533	-1.004258	1.550057	-0.302553	-0.042276	-0.063904	-24.700807	-78.869219	166.014565
38159	4193490	9.447042	-1.026333	1.576524	-0.307910	-0.046912	-0.065973	-24.714963	-78.880122	165.984026
38160	4193515	9.416698	-1.034665	1.589799	-0.310785	-0.049901	-0.065172	-24.731827	-78.891414	165.953727
38161	4193540	9.416593	-1.032049	1.636282	-0.310905	-0.059296	-0.068656	-24.748384	-78.904092	165.925202
38162	4193565	9.410948	-1.047344	1.684052	-0.310093	-0.065812	-0.076191	-24.761800	-78.918071	165.893595
38163	4193590	9.375069	-1.039259	1.718585	-0.314336	-0.080778	-0.080213	-24.777715	-78.934240	165.863917
38164	4193615	9.381831	-1.007872	1.789126	-0.324656	-0.100040	-0.073677	-24.806244	-78.952568	165.843471
38165	4193640	9.303066	-1.098847	1.841939	-0.305712	-0.114034	-0.070857	-24.837389	-78.972503	165.830572
38166	4193665	9.383335	-1.111972	1.677159	-0.321274	-0.125766	-0.077817	-24.869776	-78.994383	165.816669
38167	4193690	9.409437	-1.061299	1.730541	-0.334731	-0.137287	-0.079626	-24.906495	-79.017870	165.805216
38168	4193715	9.423087	-1.110856	1.751612	-0.348470	-0.149314	-0.084673	-24.946495	-79.043270	165.792971
38169	4193740	9.450612	-1.064253	1.781030	-0.359482	-0.156672	-0.090019	-24.985953	-79.069907	165.780698
38170	4193765	9.447792	-1.123375	1.774179	-0.374620	-0.168024	-0.093113	-25.029130	-79.098205	165.770006
38171	4193790	9.454725	-1.128804	1.758215	-0.384979	-0.177674	-0.093374	-25.076746	-79.127774	165.762324
38172	4193815	9.465710	-1.128820	1.764865	-0.395700	-0.187948	-0.092687	-25.130644	-79.158677	165.757330
38173	4193840	9.440944	-1.124699	1.760878	-0.396632	-0.198086	-0.094719	-25.185757	-79.190976	165.755583
38174	4193865	9.447826	-1.139792	1.748898	-0.410310	-0.202182	-0.091970	-25.246175	-79.223639	165.757242
38175	4193890	9.462966	-1.164511	1.744816	-0.416870	-0.207402	-0.086813	-25.312924	-79.256662	165.764389
38176	4193915	9.469790	-1.200254	1.742081	-0.423424	-0.208355	-0.086927	-25.382001	-79.289855	165.770785
38177	4193940	9.428468	-1.240091	1.723332	-0.434634	-0.209306	-0.087275	-25.452062	-79.323149	165.778712
38178	4193965	9.486275	-1.264840	1.719286	-0.445610	-0.202306	-0.082415	-25.524986	-79.355237	165.787951
38179	4193990	9.471136	-1.282674	1.709891	-0.458802	-0.201598	-0.087464	-25.596333	-79.387543	165.793662
38180	4194015	9.471234	-1.287997	1.664705	-0.468643	-0.199002	-0.077394	-25.676382	-79.418928	165.804600
38181	4194040	9.570527	-1.252123	1.629034	-0.487304	-0.194563	-0.073859	-25.759390	-79.449477	165.818019
38182	4194065	9.591320	-1.217635	1.595939	-0.511630	-0.182097	-0.068222	-25.845892	-79.478064	165.831447
38183	4194090	9.599673	-1.187324	1.578806	-0.526473	-0.164564	-0.069311	-25.928115	-79.504457	165.838359
38184	4194115	9.609246	-1.202491	1.592026	-0.540117	-0.149977	-0.070506	-26.007714	-79.529081	165.838395
38185	4194140	9.587279	-1.199651	1.570779	-0.557600	-0.133634	-0.069579	-26.084100	-79.551506	165.834837
38186	4194165	9.554249	-1.210608	1.549445	-0.574043	-0.116061	-0.064078	-26.160822	-79.571325	165.829225
38187	4194190	9.532246	-1.183074	1.552206	-0.578934	-0.095242	-0.058426	-26.235168	-79.588112	165.820485
38188	4194215	9.543237	-1.198201	1.558805	-0.582464	-0.074285	-0.064372	-26.299720	-79.602622	165.799030
38189	4194240	9.539047	-1.225737	1.562715	-0.595884	-0.048369	-0.068881	-26.353119	-79.614059	165.766526
38190	4194265	9.547321	-1.180435	1.586779	-0.602612	-0.022207	-0.073648	-26.395077	-79.622447	165.721412
38191	4194290	9.594278	-1.114352	1.573703	-0.610305	0.001086	-0.077656	-26.427220	-79.628107	165.665201
38192	4194315	9.650643	-1.085706	1.630986	-0.613596	0.017624	-0.079849	-26.453534	-79.631827	165.600320
38193	4194340	9.650549	-1.089997	1.664168	-0.611149	0.032499	-0.077622	-26.474850	-79.633466	165.532981
38194	4194365	9.603624	-1.105226	1.697313	-0.612496	0.042608	-0.081383	-26.490189	-79.634053	165.459369
38195	4194390	9.567804	-1.099768	1.705279	-0.617530	0.049706	-0.081941	-26.503377	-79.633770	165.382838
38196	4194415	9.591269	-1.070889	1.705365	-0.616254	0.059760	-0.077049	-26.517319	-79.631923	165.304982
38197	4194440	9.560986	-1.046136	1.714754	-0.618044	0.055641	-0.078714	-26.530786	-79.630679	165.228658
38198	4194465	9.530588	-1.077836	1.735850	-0.610905	0.052199	-0.085318	-26.539813	-79.630301	165.148861
38199	4194490	9.516785	-1.103970	1.733084	-0.621358	0.046663	-0.088374	-26.550133	-79.630831	165.068856
38200	4194515	9.552699	-1.084584	1.694669	-0.633605	0.034085	-0.083959	-26.570713	-79.632728	164.995211
38201	4194540	9.511442	-1.076276	1.682685	-0.643969	0.042158	-0.079799	-26.591838	-79.633294	164.922898
38202	4194565	9.501934	-1.071971	1.629563	-0.653783	0.038269	-0.071557	-26.621500	-79.633835	164.857835
38203	4194590	9.518484	-1.122676	1.588265	-0.658918	0.039932	-0.071983	-26.651014	-79.634197	164.791874
38204	4194615	9.522536	-1.206504	1.577310	-0.660108	0.038396	-0.071928	-26.682302	-79.634793	164.725240
38205	4194640	9.607940	-1.233934	1.550709	-0.650978	0.034338	-0.085361	-26.703277	-79.636743	164.651754
38206	4194665	9.680938	-1.210614	1.560125	-0.640617	0.030102	-0.089839	-26.721112	-79.639528	164.576587
38207	4194690	9.707093	-1.198247	1.570816	-0.632808	0.035466	-0.097775	-26.730368	-79.642141	164.493835
38208	4194715	9.760736	-1.209350	1.589412	-0.628682	0.032978	-0.097424	-26.741175	-79.645087	164.410934
38209	4194740	9.800597	-1.236953	1.602654	-0.604259	0.027934	-0.099190	-26.747965	-79.648760	164.329834
38210	4194765	9.832151	-1.293349	1.622394	-0.596143	0.019492	-0.106162	-26.751656	-79.653963	164.246767
38211	4194790	9.869405	-1.269957	1.605207	-0.587879	0.018203	-0.118655	-26.745816	-79.660136	164.155216
38212	4194815	9.905217	-1.238398	1.621300	-0.579079	0.018010	-0.126262	-26.734438	-79.666856	164.056965
38213	4194840	9.906661	-1.219095	1.609378	-0.578123	0.011395	-0.131895	-26.720178	-79.674747	163.958280
38214	4194865	9.883264	-1.234154	1.594700	-0.576879	0.007501	-0.135247	-26.704671	-79.683348	163.858511
38215	4194890	9.870804	-1.302874	1.579881	-0.573279	0.009032	-0.143024	-26.682536	-79.692247	163.752533
38216	4194915	9.839149	-1.287716	1.579896	-0.574186	0.001785	-0.144170	-26.663240	-79.702175	163.646929
38217	4194940	9.814442	-1.286221	1.549311	-0.575136	-0.000761	-0.147663	-26.641328	-79.712613	163.540913
38218	4194965	9.756659	-1.239472	1.549450	-0.561555	-0.000717	-0.147878	-26.617172	-79.723051	163.434598
38219	4194990	9.738835	-1.221472	1.529586	-0.550906	-0.005823	-0.150202	-26.591518	-79.734283	163.328313
38220	4195015	9.734890	-1.174606	1.481875	-0.538062	-0.012781	-0.152381	-26.565879	-79.746573	163.221508
38221	4195040	9.719755	-1.147111	1.493890	-0.524151	-0.023375	-0.149660	-26.542683	-79.760004	163.121624
38222	4195065	9.684014	-1.134641	1.473999	-0.513484	-0.029917	-0.145574	-26.523016	-79.774004	163.026884
38223	4195090	9.649648	-1.120866	1.458085	-0.500524	-0.030234	-0.136401	-26.507976	-79.787454	162.938735
38224	4195115	9.619381	-1.144113	1.428781	-0.480481	-0.042659	-0.135222	-26.496274	-79.802453	162.854466
38225	4195140	9.607158	-1.163023	1.350323	-0.464663	-0.047617	-0.135915	-26.482331	-79.818093	162.772659
38226	4195165	9.580951	-1.190565	1.348883	-0.447880	-0.053823	-0.138381	-26.466277	-79.834682	162.691154
38227	4195190	9.545275	-1.149163	1.319789	-0.425796	-0.057191	-0.135098	-26.450449	-79.851490	162.613097
38228	4195215	9.512363	-1.202475	1.235874	-0.408989	-0.058967	-0.132494	-26.435680	-79.868392	162.536098
38231	4195240	9.493395	-1.153956	1.133744	-0.405811	-0.054270	-0.138563	-26.413141	-79.885038	162.454139
38232	4195265	9.450940	-1.112428	1.060781	-0.405379	-0.044826	-0.135650	-26.389095	-79.900280	162.370717
38233	4195290	9.422277	-1.059904	0.994486	-0.413163	-0.030385	-0.137056	-26.359828	-79.913752	162.280863
38234	4195315	9.418304	-1.021237	0.949427	-0.423645	-0.019108	-0.132774	-26.332115	-79.925536	162.188560
38235	4195340	9.429262	-1.070730	0.941332	-0.432365	-0.006895	-0.121745	-26.307987	-79.935005	162.101138
38236	4195365	9.422449	-1.058250	0.922761	-0.438246	0.010601	-0.111274	-26.285931	-79.941557	162.014967
38237	4195390	9.361940	-1.053993	0.889511	-0.443645	0.016926	-0.103965	-26.267616	-79.946827	161.931811
38238	4195415	9.320680	-1.004485	0.893636	-0.452790	0.028521	-0.099419	-26.250878	-79.950359	161.846381
38239	4195440	9.289064	-0.982451	0.883061	-0.464021	0.040881	-0.091398	-26.235956	-79.951747	161.763710
38240	4195465	9.260072	-0.931786	0.944327	-0.479272	0.049630	-0.077313	-26.230302	-79.951116	161.688231
38241	4195490	9.258564	-0.915523	1.006804	-0.486401	0.044812	-0.071272	-26.231774	-79.950722	161.618953
38242	4195515	9.214434	-0.945809	1.011996	-0.492753	0.046827	-0.057557	-26.244560	-79.949249	161.557661
38243	4195540	9.190992	-0.981535	1.003895	-0.496933	0.048721	-0.043257	-26.266466	-79.946582	161.507602
38244	4195565	9.211494	-1.088764	1.007540	-0.498720	0.045083	-0.042504	-26.290480	-79.944339	161.459424
38245	4195590	9.252797	-1.095686	1.008833	-0.497590	0.039883	-0.040013	-26.318001	-79.942609	161.414972
38246	4195615	9.274937	-1.041996	0.997086	-0.510305	0.038973	-0.037955	-26.350352	-79.940918	161.370957
38247	4195640	9.177093	-1.017402	1.035625	-0.512423	0.035562	-0.039306	-26.382062	-79.939706	161.328601
38248	4195665	9.111011	-0.995370	1.034360	-0.505555	0.026304	-0.037281	-26.417575	-79.939557	161.291107
38249	4195690	9.111079	-0.980189	1.021120	-0.511889	0.023405	-0.030984	-26.459590	-79.939383	161.259294
38250	4195715	9.116631	-0.956777	1.018564	-0.524843	0.026107	-0.026965	-26.506595	-79.938661	161.228015
38251	4195740	9.120899	-0.905795	0.986857	-0.553069	0.033528	-0.025229	-26.555019	-79.936830	161.196720
38252	4195765	9.141800	-0.835459	0.933955	-0.585121	0.055391	-0.024925	-26.600362	-79.932184	161.157633
38253	4195790	9.230053	-0.773552	0.922268	-0.616899	0.070202	-0.021631	-26.647280	-79.925435	161.115522
38254	4195815	9.322313	-0.729676	0.956980	-0.647874	0.084223	-0.015725	-26.699026	-79.916572	161.071132
38255	4195840	9.464143	-0.666592	1.001151	-0.678584	0.100316	-0.012545	-26.750418	-79.905398	161.024589
38256	4195865	9.581071	-0.639393	1.069039	-0.705919	0.112756	-0.009404	-26.803473	-79.892438	160.975757
38257	4195890	9.662314	-0.583162	1.106472	-0.734566	0.121339	-0.003475	-26.861765	-79.878006	160.928073
38258	4195915	9.689778	-0.570948	1.145072	-0.768084	0.131916	0.011218	-26.932712	-79.861337	160.885685
38259	4195940	9.703489	-0.534007	1.191714	-0.798366	0.141330	0.021185	-27.010436	-79.842771	160.848453
38260	4195965	9.714522	-0.540852	1.182366	-0.834851	0.154892	0.038277	-27.100538	-79.821371	160.818485
38261	4195990	9.711774	-0.531210	1.185062	-0.872865	0.168110	0.054269	-27.202485	-79.797250	160.795017
38262	4196015	9.824675	-0.476386	1.225187	-0.905863	0.176866	0.066380	-27.315522	-79.771288	160.775339
38263	4196040	9.843822	-0.506783	1.262295	-0.932968	0.185457	0.081517	-27.438530	-79.743182	160.764521
38264	4196065	9.850584	-0.479494	1.331455	-0.939003	0.186469	0.092383	-27.569338	-79.714233	160.760751
38265	4196090	9.865442	-0.488169	1.445687	-0.923394	0.182769	0.090100	-27.697320	-79.685907	160.756380
38266	4196115	9.850070	-0.491235	1.537336	-0.902803	0.168414	0.090401	-27.828639	-79.659445	160.755741
38267	4196140	9.913121	-0.644050	1.566133	-0.879312	0.158724	0.089960	-27.958348	-79.634176	160.759544
38268	4196165	10.005151	-0.803593	1.568313	-0.877700	0.150059	0.076218	-28.081207	-79.610926	160.756619
38269	4196190	10.061508	-0.934131	1.533359	-0.887133	0.143822	0.065362	-28.199983	-79.589199	160.748167
38270	4196215	10.053317	-0.938100	1.501458	-0.891970	0.137128	0.046103	-28.309637	-79.569688	160.727082
38271	4196240	10.036827	-0.924353	1.493517	-0.892499	0.135520	0.033408	-28.409968	-79.551187	160.699092
38272	4196265	10.032662	-0.934010	1.501457	-0.877047	0.135112	0.020844	-28.499545	-79.533604	160.662417
38273	4196290	9.984363	-1.019242	1.490533	-0.874753	0.132600	0.016290	-28.586539	-79.516658	160.623447
38274	4196315	9.948558	-1.021974	1.491802	-0.854270	0.129303	0.011759	-28.669815	-79.500512	160.581014
38275	4196340	9.886503	-1.000121	1.535693	-0.831106	0.123750	0.010549	-28.749806	-79.485094	160.541275
38276	4196365	9.861539	-1.037443	1.582072	-0.807631	0.123411	0.011176	-28.826929	-79.469686	160.502038
38277	4196390	9.815911	-1.082995	1.633690	-0.788267	0.113918	0.019644	-28.910458	-79.454892	160.472137
38278	4196415	9.822630	-1.107958	1.685421	-0.762552	0.103274	0.016050	-28.992913	-79.441753	160.442218
38279	4196440	9.833386	-1.220876	1.722265	-0.743280	0.091751	0.024968	-29.081680	-79.429382	160.424197
38280	4196465	9.823504	-1.302207	1.775128	-0.723952	0.072078	0.024502	-29.174626	-79.419510	160.413244
38281	4196490	9.816417	-1.368369	1.820069	-0.696796	0.050391	0.018576	-29.267757	-79.412767	160.406434
38282	4196515	9.860312	-1.459212	1.835749	-0.677553	0.034741	0.009289	-29.358888	-79.408693	160.397712
38283	4196540	9.879505	-1.508733	1.843551	-0.659433	0.018872	0.002597	-29.447748	-79.407010	160.392002
38284	4196565	9.824269	-1.508956	1.900655	-0.645225	0.000043	-0.006026	-29.535911	-79.408285	160.387653
38285	4196590	9.837904	-1.513295	1.953805	-0.626673	-0.020461	-0.003009	-29.631191	-79.411902	160.393249
38286	4196615	9.791040	-1.514758	1.969701	-0.611854	-0.047164	-0.007629	-29.732600	-79.419226	160.404538
38287	4196640	9.737283	-1.527132	1.978942	-0.594701	-0.067246	-0.009640	-29.836790	-79.429127	160.423857
38288	4196665	9.727702	-1.492721	1.975072	-0.570004	-0.091001	-0.008920	-29.947136	-79.441920	160.453034
38289	4196690	9.720959	-1.399228	1.975366	-0.550629	-0.106472	-0.010718	-30.059629	-79.456751	160.487218
38290	4196715	9.762412	-1.370221	1.935631	-0.544097	-0.121963	-0.015159	-30.175596	-79.473861	160.523176
38291	4196740	9.733761	-1.265523	1.885471	-0.533427	-0.136635	-0.011574	-30.297210	-79.492461	160.569139
38292	4196765	9.698054	-1.231030	1.864338	-0.528465	-0.138520	-0.008996	-30.420866	-79.511089	160.617898
38293	4196790	9.663630	-1.235147	1.856340	-0.519887	-0.137334	-0.002080	-30.547748	-79.529048	160.671185
38294	4196815	9.658048	-1.240721	1.889507	-0.503826	-0.138396	0.009207	-30.681777	-79.546343	160.731369
38295	4196840	9.651075	-1.280658	1.901345	-0.495909	-0.146329	0.009781	-30.817351	-79.564496	160.796981
38296	4196865	9.686747	-1.295957	1.942513	-0.497189	-0.143421	0.007296	-30.950632	-79.582447	160.860070
38297	4196890	9.679850	-1.252041	1.970536	-0.492740	-0.140674	0.003332	-31.079855	-79.600326	160.919679
38298	4196915	9.703224	-1.224665	2.002565	-0.481188	-0.140473	0.004630	-31.209725	-79.618107	160.978923
38299	4196940	9.752687	-1.227593	2.053073	-0.465411	-0.145601	0.005077	-31.338851	-79.636411	161.042405
38300	4196965	9.817389	-1.256463	2.046357	-0.464898	-0.146124	0.004260	-31.467909	-79.654814	161.105889
38301	4196990	9.868273	-1.308763	2.042244	-0.458990	-0.139332	0.001073	-31.591532	-79.672601	161.164705
38302	4197015	9.901172	-1.355619	2.072696	-0.462875	-0.125629	0.005656	-31.714630	-79.688392	161.219728
38303	4197040	9.935387	-1.376526	2.147031	-0.465162	-0.100659	0.010633	-31.830089	-79.700704	161.269342
38304	4197065	9.844253	-1.341246	2.266634	-0.468707	-0.085816	0.018838	-31.945556	-79.710572	161.318447
38305	4197090	9.777961	-1.348331	2.339662	-0.466546	-0.076592	0.027983	-32.063131	-79.718608	161.370006
38306	4197115	9.747376	-1.322702	2.469922	-0.461550	-0.075278	0.038803	-32.188007	-79.725675	161.427044
38307	4197140	9.751155	-1.336972	2.604073	-0.446250	-0.079761	0.043435	-32.314606	-79.732874	161.490727
38308	4197165	9.690435	-1.326192	2.670448	-0.437160	-0.089392	0.050238	-32.448665	-79.740690	161.563313
38309	4197190	9.791003	-1.287713	2.670707	-0.433014	-0.097850	0.041272	-32.579904	-79.750188	161.633635
38310	4197215	9.887562	-1.275165	2.618965	-0.433593	-0.109826	0.040013	-32.716892	-79.761225	161.707087
38311	4197240	9.940054	-1.302417	2.537853	-0.451830	-0.113513	0.047868	-32.862355	-79.772037	161.789119
38312	4197265	9.984292	-1.318611	2.459441	-0.478412	-0.115648	0.052232	-33.015700	-79.782728	161.875289
38313	4197290	9.969122	-1.398234	2.419340	-0.505680	-0.111410	0.063179	-33.178651	-79.792012	161.967247
38314	4197315	9.898935	-1.433834	2.375314	-0.522935	-0.106643	0.068302	-33.346819	-79.800294	162.059399
38315	4197340	9.901632	-1.429785	2.405872	-0.527486	-0.108710	0.082733	-33.525158	-79.807615	162.163814
38316	4197365	9.847807	-1.505436	2.408249	-0.529261	-0.112341	0.091861	-33.711614	-79.814587	162.276216
38317	4197390	9.726554	-1.519213	2.422744	-0.532980	-0.116913	0.102295	-33.907751	-79.821204	162.397910
38318	4197415	9.688054	-1.454608	2.433545	-0.526226	-0.127742	0.109780	-34.114102	-79.828443	162.528393
38319	4197440	9.638476	-1.421673	2.462828	-0.522630	-0.148100	0.109319	-34.327851	-79.838034	162.669480
38320	4197465	9.641364	-1.388532	2.424432	-0.531095	-0.167850	0.109647	-34.552313	-79.849837	162.820214
38321	4197490	9.667674	-1.334807	2.398037	-0.541218	-0.188331	0.108063	-34.786968	-79.864074	162.979824
38322	4197515	9.643167	-1.250683	2.338516	-0.554811	-0.218014	0.114961	-35.043498	-79.881115	163.157136
38323	4197540	9.659913	-1.195465	2.273634	-0.562775	-0.238247	0.113133	-35.308910	-79.900529	163.344835
38324	4197565	9.724775	-1.163708	2.237916	-0.567834	-0.249420	0.125988	-35.589575	-79.920022	163.547278
38325	4197590	9.777272	-1.166210	2.174170	-0.582318	-0.258838	0.135909	-35.884189	-79.939602	163.761769
38326	4197615	9.814537	-1.179799	2.128981	-0.589527	-0.264670	0.146708	-36.191833	-79.958745	163.985937
38327	4197640	9.880602	-1.189470	2.136979	-0.583449	-0.265959	0.153993	-36.503809	-79.977209	164.217870
38328	4197665	9.941126	-1.188217	2.166236	-0.588946	-0.261633	0.160168	-36.819480	-79.994428	164.452743
38329	4197690	9.982420	-1.192392	2.174214	-0.597301	-0.259052	0.172666	-37.144128	-80.010045	164.695505
38330	4197715	10.020928	-1.156727	2.214209	-0.601575	-0.260665	0.175552	-37.474098	-80.025342	164.940580
38333	4197740	10.052655	-1.129245	2.210363	-0.606503	-0.251100	0.177157	-37.800741	-80.039182	165.184006
38334	4197765	10.005800	-1.126562	2.226247	-0.620565	-0.247049	0.173298	-38.125661	-80.052664	165.423628
38335	4197790	9.982431	-1.024941	2.263794	-0.652348	-0.234766	0.170749	-38.448020	-80.064757	165.656018
38336	4197815	9.994996	-0.929994	2.252186	-0.672199	-0.220035	0.174262	-38.769738	-80.074642	165.882461
38337	4197840	9.997685	-0.910895	2.293420	-0.678197	-0.208795	0.180426	-39.089829	-80.082519	166.108776
38338	4197865	9.968688	-0.869788	2.340044	-0.673746	-0.199127	0.189589	-39.410490	-80.088275	166.336311
38339	4197890	9.932735	-0.854933	2.413129	-0.669332	-0.187473	0.198752	-39.730508	-80.091690	166.563834
38340	4197915	9.933877	-0.859393	2.508784	-0.659196	-0.182156	0.200224	-40.048491	-80.094139	166.788434
38341	4197940	9.896537	-0.832187	2.588555	-0.653327	-0.181177	0.201850	-40.365147	-80.096143	167.014867
38342	4197965	9.883936	-0.840764	2.672222	-0.641951	-0.186576	0.201063	-40.682671	-80.098593	167.243834
38343	4197990	9.845169	-0.893191	2.727842	-0.642832	-0.192800	0.204161	-41.005720	-80.101206	167.478279
38344	4198015	9.802247	-0.931947	2.791424	-0.628305	-0.197721	0.193493	-41.323980	-80.105096	167.707741
38345	4198040	9.784088	-0.963899	2.882986	-0.603388	-0.216726	0.191169	-41.646750	-80.111058	167.947633
38346	4198065	9.775713	-1.050538	2.874767	-0.580068	-0.235489	0.175631	-41.967316	-80.120276	168.188672
38347	4198090	9.775917	-1.077637	2.776333	-0.535637	-0.238963	0.162089	-42.275700	-80.130937	168.423798
38348	4198115	9.775919	-1.099580	2.757722	-0.501469	-0.232486	0.145663	-42.567204	-80.142244	168.644617
38349	4198140	9.760816	-1.150274	2.709692	-0.469515	-0.220871	0.126487	-42.835567	-80.154050	168.848720
38350	4198165	9.723570	-1.192916	2.706855	-0.426546	-0.211632	0.115654	-43.086579	-80.165787	169.041454
38351	4198190	9.660190	-1.195653	2.713499	-0.372662	-0.199012	0.105211	-43.316947	-80.177091	169.221062
38352	4198215	9.572116	-1.161287	2.712202	-0.324564	-0.186363	0.096567	-43.529466	-80.187759	169.387493
38353	4198240	9.545953	-1.183232	2.694848	-0.269865	-0.173199	0.100283	-43.728261	-80.196645	169.549990
38354	4198265	9.515648	-1.280686	2.642681	-0.222847	-0.153787	0.106154	-43.912984	-80.202851	169.705040
38355	4198290	9.477028	-1.372693	2.615785	-0.189488	-0.139150	0.100440	-44.081282	-80.208035	169.848268
38356	4198315	9.456204	-1.444276	2.636798	-0.154862	-0.125943	0.105204	-44.240914	-80.211254	169.985759
38357	4198340	9.447808	-1.547401	2.631126	-0.132404	-0.108717	0.104351	-44.385968	-80.212793	170.113693
38358	4198365	9.462720	-1.661688	2.657337	-0.124277	-0.102554	0.098130	-44.522627	-80.214273	170.234290
38359	4198390	9.393970	-1.612101	2.644154	-0.111058	-0.096509	0.097530	-44.653547	-80.215148	170.350984
38360	4198415	9.212428	-1.485489	2.619198	-0.102186	-0.092477	0.099115	-44.782710	-80.215336	170.465272
38361	4198440	9.095732	-1.353172	2.547854	-0.093481	-0.085706	0.124039	-44.920403	-80.212346	170.591395
38362	4198465	9.054583	-1.335102	2.496071	-0.088799	-0.077938	0.142401	-45.063548	-80.206656	170.723731
38363	4198490	8.976345	-1.275663	2.420493	-0.097077	-0.066823	0.165419	-45.214625	-80.197448	170.862917
38364	4198515	8.951628	-1.319468	2.369862	-0.101535	-0.046372	0.192080	-45.370407	-80.183322	171.004391
38365	4198540	8.999739	-1.429373	2.338948	-0.107898	-0.021340	0.213011	-45.523155	-80.164558	171.143712
38366	4198565	9.071180	-1.513357	2.362627	-0.115567	-0.013836	0.225449	-45.679185	-80.143706	171.285256
38367	4198590	9.058790	-1.569547	2.323914	-0.115849	0.003265	0.227268	-45.825582	-80.120894	171.416992
38368	4198615	9.017325	-1.663105	2.335519	-0.118050	0.015466	0.210364	-45.955656	-80.098461	171.530053
38369	4198640	8.951205	-1.630166	2.358175	-0.127703	0.025977	0.190859	-46.068441	-80.077040	171.625962
38370	4198665	8.995526	-1.583151	2.282634	-0.130034	0.036870	0.179414	-46.168216	-80.055689	171.708329
38371	4198690	9.060447	-1.571907	2.213606	-0.123689	0.045921	0.157823	-46.249190	-80.035650	171.772537
38372	4198715	9.090730	-1.599352	2.200261	-0.116909	0.060208	0.151458	-46.317732	-80.014745	171.823360
38373	4198740	9.092298	-1.527710	2.167278	-0.111248	0.070578	0.148195	-46.376481	-79.993240	171.866818
38374	4198765	9.075687	-1.511379	2.212493	-0.103435	0.076455	0.148314	-46.430511	-79.971134	171.906623
38375	4198790	9.093526	-1.493663	2.255048	-0.095415	0.069276	0.139947	-46.482739	-79.950599	171.945767
38376	4198815	9.041125	-1.434746	2.312348	-0.098534	0.061876	0.132757	-46.536349	-79.931431	171.984160
38377	4198840	8.937918	-1.359132	2.331117	-0.103892	0.056584	0.121488	-46.586628	-79.914053	172.020096
38378	4198865	8.868933	-1.319501	2.402978	-0.119545	0.041312	0.109257	-46.641173	-79.899446	172.058090
38379	4198890	8.798742	-1.216519	2.443102	-0.138392	0.025345	0.101945	-46.703585	-79.887163	172.101334
38380	4198915	8.662378	-1.208302	2.459004	-0.169544	0.002982	0.097397	-46.781642	-79.877431	172.154307
38381	4198940	8.618260	-1.191947	2.490899	-0.197308	-0.012270	0.093189	-46.869420	-79.869729	172.214748
38382	4198965	8.528843	-1.182155	2.457680	-0.225641	-0.036837	0.086889	-46.972082	-79.865072	172.286187
38383	4198990	8.495717	-1.178160	2.490904	-0.250296	-0.051600	0.081757	-47.084051	-79.862370	172.363494
38384	4199015	8.484615	-1.189216	2.513449	-0.271381	-0.065586	0.085598	-47.209996	-79.860484	172.450382
38385	4199040	8.476418	-1.153414	2.509603	-0.274880	-0.072579	0.079928	-47.336745	-79.859955	172.539127
38386	4199065	8.447422	-1.128831	2.550836	-0.272441	-0.082010	0.070311	-47.463487	-79.861321	172.628220
38387	4199090	8.425301	-1.123451	2.589382	-0.260115	-0.092526	0.073905	-47.596653	-79.863288	172.725632
38388	4199115	8.392159	-1.144203	2.613216	-0.244097	-0.098591	0.064009	-47.726479	-79.866726	172.820520
38389	4199140	8.357576	-1.153985	2.672943	-0.223993	-0.106385	0.058208	-47.854362	-79.871615	172.917820
38390	4199165	8.310717	-1.123847	2.700947	-0.187881	-0.115971	0.049807	-47.978378	-79.878279	173.016444
38391	4199190	8.316273	-1.103180	2.695693	-0.150010	-0.118697	0.030375	-48.088318	-79.887238	173.106277
38392	4199215	8.341082	-1.045532	2.715831	-0.124429	-0.123997	0.028746	-48.197669	-79.896718	173.197871
38393	4199240	8.313623	-1.017946	2.698652	-0.098105	-0.119002	0.023177	-48.296858	-79.906417	173.284331
38394	4199265	8.308166	-1.008284	2.684073	-0.073916	-0.111750	0.018603	-48.385944	-79.915889	173.364046
38395	4199290	8.335729	-0.982183	2.692145	-0.065109	-0.106190	0.022987	-48.472914	-79.924343	173.442890
38396	4199315	8.399102	-0.980794	2.684204	-0.048311	-0.086538	0.020821	-48.545123	-79.931007	173.507931
38397	4199340	8.429334	-1.037157	2.678731	-0.040732	-0.074458	0.028931	-48.612803	-79.935779	173.570728
38398	4199365	8.495333	-1.107322	2.677215	-0.035961	-0.058661	0.036825	-48.674493	-79.938194	173.628133
38399	4199390	8.586178	-1.180140	2.655757	-0.027837	-0.042732	0.049506	-48.732134	-79.937728	173.682608
38400	4199415	8.659103	-1.259879	2.634280	-0.020374	-0.030687	0.059137	-48.787005	-79.934935	173.734200
38401	4199440	8.696275	-1.305154	2.610251	-0.013386	-0.007045	0.065903	-48.829586	-79.929318	173.775483
38402	4199465	8.755457	-1.394412	2.571453	-0.006051	0.014672	0.072607	-48.861441	-79.920926	173.806941
38403	4199490	8.773230	-1.496140	2.564490	0.007166	0.033051	0.074726	-48.881325	-79.910571	173.828163
38404	4199515	8.782769	-1.519654	2.593649	0.012572	0.052214	0.073548	-48.888615	-79.898387	173.836300
38405	4199540	8.799245	-1.515609	2.618891	0.025347	0.060105	0.083984	-48.894335	-79.884484	173.845782
38406	4199565	8.768896	-1.518426	2.636136	0.049773	0.074188	0.082704	-48.887356	-79.869393	173.845919
38407	4199590	8.717772	-1.504947	2.707927	0.074404	0.076158	0.095963	-48.882652	-79.852685	173.851950
38408	4199615	8.692796	-1.543660	2.767501	0.106074	0.078568	0.105724	-48.877504	-79.834539	173.861137
38409	4199640	8.769920	-1.571088	2.748886	0.141117	0.069633	0.101754	-48.870204	-79.817821	173.874241
38410	4199665	8.889961	-1.529616	2.681319	0.152166	0.067510	0.093603	-48.858318	-79.802184	173.884294
38411	4199690	8.921928	-1.445490	2.612521	0.148870	0.071146	0.088499	-48.842060	-79.786754	173.889425
38412	4199715	8.939991	-1.375262	2.586228	0.128481	0.074182	0.080161	-48.822939	-79.771771	173.887755
38413	4199740	8.932050	-1.295192	2.509391	0.113429	0.081748	0.079975	-48.801017	-79.756261	173.881972
38414	4199765	8.952991	-1.230271	2.429920	0.097145	0.083576	0.080797	-48.780807	-79.740490	173.875559
38415	4199790	8.932474	-1.198507	2.391461	0.084756	0.090365	0.084692	-48.760406	-79.723657	173.867147
38416	4199815	8.888425	-1.195704	2.384841	0.068368	0.096476	0.081509	-48.737454	-79.706418	173.852911
38417	4199840	8.858160	-1.162718	2.392876	0.055087	0.105301	0.088437	-48.714505	-79.687770	173.837590
38418	4199865	8.830613	-1.146218	2.404877	0.049777	0.105537	0.086740	-48.691364	-79.669281	173.821300
38419	4199890	8.785232	-1.132436	2.386291	0.054722	0.099969	0.087160	-48.671084	-79.651273	173.808636
38420	4199915	8.712222	-1.159902	2.378177	0.051847	0.094795	0.083777	-48.652860	-79.633940	173.796878
38421	4199940	8.681933	-1.146132	2.384857	0.049578	0.088216	0.088331	-48.640926	-79.616917	173.791949
38422	4199965	8.620032	-1.107599	2.376957	0.064385	0.079769	0.081472	-48.628311	-79.601430	173.788484
38423	4199990	8.554015	-1.070396	2.362422	0.069964	0.062935	0.081527	-48.624795	-79.587531	173.795082
38424	4200015	8.494946	-1.042697	2.321310	0.079364	0.062186	0.083691	-48.621736	-79.573290	173.802831
38425	4200040	8.453718	-1.041183	2.284101	0.078312	0.054388	0.080071	-48.621254	-79.560357	173.813731
38426	4200065	8.405589	-1.025963	2.262850	0.075893	0.052147	0.076054	-48.620350	-79.548067	173.823848
38427	4200090	8.368531	-0.987398	2.237715	0.070946	0.045905	0.081539	-48.626587	-79.535780	173.840509
38428	4200115	8.336865	-0.987324	2.232383	0.063874	0.045463	0.081417	-48.634221	-79.523361	173.856957
38429	4200140	8.274845	-1.005231	2.244235	0.065705	0.038798	0.081119	-48.645066	-79.511791	173.877541
38430	4200165	8.245877	-1.016278	2.250853	0.063939	0.035189	0.083454	-48.659415	-79.500309	173.901433
38431	4200190	8.226580	-1.046494	2.241423	0.067385	0.034009	0.081894	-48.673119	-79.489107	173.925170
38432	4200215	8.201727	-1.091879	2.241255	0.071944	0.029512	0.077112	-48.686478	-79.478653	173.948698
38435	4200240	8.177009	-1.076641	2.220051	0.079356	0.027287	0.074822	-48.698686	-79.468845	173.972660
38436	4200265	8.138471	-1.082112	2.210697	0.091301	0.020900	0.072442	-48.711635	-79.459896	173.999117
38437	4200290	8.077902	-1.065582	2.208076	0.096749	0.020087	0.074261	-48.725164	-79.450826	174.026958
38438	4200315	8.024186	-1.087575	2.202629	0.104408	0.018434	0.071971	-48.737497	-79.441965	174.054248
38439	4200340	7.996643	-1.104032	2.187956	0.105324	0.020725	0.079399	-48.751961	-79.432279	174.084292
38440	4200365	7.931968	-1.131352	2.154611	0.114949	0.017746	0.074144	-48.764068	-79.423440	174.113342
38441	4200390	7.893362	-1.132796	2.169191	0.113535	0.024080	0.070192	-48.770696	-79.414428	174.136611
38442	4200415	7.853462	-1.145064	2.143894	0.120753	0.018658	0.076026	-48.782439	-79.405100	174.165755
38443	4200440	7.791655	-1.126975	2.089442	0.115816	0.018224	0.072685	-48.793311	-79.396370	174.193677
38444	4200465	7.733754	-1.168232	2.093235	0.120300	0.023480	0.078043	-48.803184	-79.386565	174.221236
38445	4200490	7.702139	-1.164001	2.065354	0.124529	0.021935	0.077948	-48.813257	-79.376916	174.249616
38446	4200515	7.635947	-1.192955	2.085131	0.134246	0.023942	0.084554	-48.824145	-79.366162	174.279921
38447	4200540	7.606969	-1.232844	2.088953	0.139630	0.023873	0.080851	-48.832325	-79.356015	174.308578
38448	4200565	7.598754	-1.232763	2.067700	0.148913	0.018843	0.083335	-48.843271	-79.346074	174.341403
38449	4200590	7.573995	-1.239569	2.050403	0.159124	0.017124	0.089124	-48.856595	-79.335669	174.378138
38450	4200615	7.483203	-1.213310	2.023885	0.170620	0.012180	0.089213	-48.871147	-79.325511	174.417532
38451	4200640	7.473628	-1.225560	1.989266	0.175485	0.011691	0.091282	-48.886216	-79.315382	174.458429
38452	4200665	7.396592	-1.182884	1.978756	0.189719	0.008450	0.093995	-48.902398	-79.305263	174.502537
38453	4200690	7.341525	-1.189693	1.966737	0.194751	0.007232	0.098537	-48.920761	-79.294766	174.549597
38454	4200715	7.301654	-1.208823	1.937395	0.196582	0.003292	0.096457	-48.940033	-79.284649	174.597637
38455	4200740	7.286494	-1.225285	1.922751	0.202569	0.000046	0.097780	-48.960872	-79.274904	174.648361
38456	4200765	7.253543	-1.199052	1.900211	0.209186	-0.002658	0.105064	-48.985852	-79.264622	174.704266
38457	4200790	7.204102	-1.138455	1.881770	0.216080	-0.003903	0.104102	-49.010000	-79.254556	174.760332
38458	4200815	7.157306	-1.130187	1.879120	0.218381	-0.005831	0.107925	-49.036724	-79.244037	174.819191
38459	4200840	7.154562	-1.156211	1.853798	0.229001	-0.012591	0.114042	-49.068718	-79.233702	174.885130
38460	4200865	7.131187	-1.167161	1.836450	0.231589	-0.010395	0.115837	-49.099882	-79.222959	174.950604
38461	4200890	7.100921	-1.176671	1.812518	0.229727	-0.012544	0.117472	-49.133242	-79.212234	175.018045
38462	4200915	7.061115	-1.125740	1.794050	0.233729	-0.009079	0.122701	-49.166493	-79.200391	175.085841
38463	4200940	7.011580	-1.106433	1.783478	0.239463	-0.008516	0.130673	-49.202432	-79.187843	175.157332
38464	4200965	6.988223	-1.113202	1.762164	0.247419	-0.005253	0.135617	-49.237673	-79.174445	175.229276
38465	4200990	6.984137	-1.118630	1.742195	0.250106	-0.010854	0.133424	-49.274504	-79.161800	175.303233
38466	4201015	6.960666	-1.120060	1.756819	0.259216	-0.004520	0.130381	-49.304768	-79.148662	175.371761
38467	4201040	6.952521	-1.097939	1.726319	0.262257	-0.006948	0.130722	-49.336080	-79.135931	175.441877
38468	4201065	6.930494	-1.074576	1.735692	0.273094	-0.010817	0.137788	-49.371339	-79.122784	175.517597
38469	4201090	6.923749	-1.016754	1.714619	0.280686	-0.009948	0.132835	-49.402487	-79.110087	175.590241
38470	4201115	6.921036	-1.001593	1.706685	0.278495	-0.011851	0.133708	-49.435239	-79.097238	175.664173
38471	4201140	6.894942	-0.952072	1.709499	0.284331	-0.009216	0.134957	-49.466232	-79.084227	175.737197
38472	4201165	6.843999	-0.928724	1.717525	0.294973	-0.012884	0.134660	-49.497503	-79.071582	175.812060
38473	4201190	6.810968	-0.901248	1.728207	0.297417	-0.015560	0.131699	-49.528388	-79.059500	175.886889
38474	4201215	6.780577	-0.934316	1.742687	0.295536	-0.018616	0.136572	-49.563369	-79.046934	175.965644
38475	4201240	6.744834	-0.910883	1.732124	0.288133	-0.021142	0.138164	-49.601582	-79.034649	176.046589
38476	4201265	6.742108	-0.921819	1.713501	0.276940	-0.018878	0.138706	-49.640249	-79.022084	176.126367
38477	4201290	6.724160	-0.913652	1.736091	0.260632	-0.018574	0.140543	-49.681820	-79.009280	176.206727
38478	4201315	6.747558	-0.875238	1.761482	0.254205	-0.021200	0.143795	-49.727047	-78.996121	176.289957
38479	4201340	6.752977	-0.915169	1.779940	0.250530	-0.026645	0.142947	-49.775451	-78.983776	176.375811
38480	4201365	6.781733	-0.945614	1.827711	0.237510	-0.027518	0.139038	-49.824206	-78.971927	176.460126
38481	4201390	6.773390	-0.944361	1.859574	0.243731	-0.029902	0.138327	-49.872931	-78.960361	176.545321
38482	4201415	6.793940	-0.959664	1.896739	0.245769	-0.035363	0.149262	-49.929269	-78.947852	176.638715
38483	4201440	6.818542	-1.031277	1.928417	0.235218	-0.033693	0.148734	-49.985944	-78.935464	176.730776
38484	4201465	6.819797	-1.046595	1.968207	0.232038	-0.040899	0.149858	-50.047480	-78.923597	176.827329
38485	4201490	6.852722	-1.033044	2.022782	0.224601	-0.039071	0.155383	-50.111474	-78.910935	176.925305
38486	4201515	6.909044	-1.033264	2.082576	0.216271	-0.041087	0.160336	-50.179704	-78.897653	177.026591
38487	4201540	6.955731	-1.054070	2.126388	0.204678	-0.041516	0.160375	-50.249868	-78.884622	177.127956
38488	4201565	7.007880	-1.113377	2.168718	0.195041	-0.045575	0.165568	-50.325900	-78.871364	177.233899
38489	4201590	7.073898	-1.113509	2.199347	0.183092	-0.047597	0.166051	-50.404784	-78.858211	177.341009
38490	4201615	7.099996	-1.109519	2.228610	0.174540	-0.034784	0.174604	-50.481186	-78.842673	177.444621
38491	4201640	7.164699	-1.091717	2.249960	0.169337	-0.034672	0.184719	-50.562938	-78.826222	177.552657
38492	4201665	7.244418	-1.086457	2.313800	0.163344	-0.027005	0.191204	-50.643952	-78.808326	177.659072
38493	4201690	7.314512	-1.088094	2.369651	0.157444	-0.019211	0.202131	-50.726148	-78.788483	177.765838
38494	4201715	7.399730	-1.081476	2.438824	0.150801	-0.004742	0.206009	-50.802336	-78.766622	177.865871
38495	4201740	7.480896	-1.096701	2.462733	0.150365	0.004737	0.210695	-50.875383	-78.743606	177.962291
38496	4201765	7.559197	-1.095660	2.551778	0.148276	0.019114	0.217333	-50.943367	-78.718530	178.053251
38497	4201790	7.610000	-1.134320	2.584922	0.149755	0.029063	0.223365	-51.007964	-78.691865	178.140982
38498	4201815	7.612607	-1.127699	2.652703	0.158894	0.040142	0.224762	-51.065015	-78.663776	178.222807
38499	4201840	7.696342	-1.204963	2.721566	0.165410	0.052191	0.234577	-51.118844	-78.633746	178.301860
38500	4201865	7.756634	-1.282303	2.795740	0.167890	0.061567	0.236812	-51.167773	-78.602609	178.376285
38501	4201890	7.823903	-1.359445	2.834080	0.174475	0.067087	0.242382	-51.214846	-78.570344	178.449787
38502	4201915	7.889772	-1.439420	2.881681	0.186667	0.075915	0.238986	-51.253075	-78.537396	178.516598
38503	4201940	7.939222	-1.451971	2.922852	0.189996	0.075869	0.240092	-51.291435	-78.504579	178.583495
38504	4201965	7.999644	-1.522235	2.957196	0.192647	0.085081	0.240235	-51.324128	-78.470912	178.645003
38505	4201990	8.079351	-1.607609	2.975543	0.195262	0.086409	0.243050	-51.356676	-78.436805	178.706754
38506	4202015	8.138390	-1.665508	3.008625	0.187066	0.090911	0.247745	-51.389270	-78.401497	178.767993
38507	4202040	8.149269	-1.738470	3.026976	0.183268	0.100966	0.248213	-51.417295	-78.365497	178.823387
38508	4202065	8.201514	-1.774281	3.040176	0.178413	0.103265	0.251541	-51.445947	-78.328915	178.878719
38509	4202090	8.245515	-1.778498	3.062786	0.165513	0.108995	0.252578	-51.473528	-78.291699	178.931079
38510	4202115	8.279833	-1.828076	3.077250	0.168295	0.114846	0.254434	-51.497624	-78.253473	178.981007
38511	4202140	8.319710	-1.848751	3.089164	0.162986	0.117253	0.256425	-51.522272	-78.215080	179.030014
38512	4202165	8.367904	-1.880345	3.070492	0.159608	0.124872	0.264515	-51.546522	-78.175097	179.078128
38513	4202190	8.416144	-1.889878	3.051880	0.151907	0.137307	0.261210	-51.563587	-78.134373	179.117780
38514	4202215	8.464283	-1.929808	3.053118	0.147262	0.148509	0.269414	-51.578110	-78.091445	179.154954
38515	4202240	8.508428	-1.925550	3.019970	0.141740	0.162946	0.271454	-51.586950	-78.047286	179.184723
38516	4202265	8.552545	-1.915914	3.013347	0.145091	0.180884	0.273500	-51.586549	-78.001301	179.205541
38517	4202290	8.614567	-1.915833	2.993483	0.151509	0.190595	0.268726	-51.578051	-77.954987	179.219025
38518	4202315	8.671008	-1.896672	3.014838	0.161660	0.204378	0.267145	-51.559665	-77.907331	179.224753
38519	4202340	8.768848	-1.859509	3.007034	0.180554	0.211634	0.261900	-51.533210	-77.859911	179.224131
38520	4202365	8.833604	-1.870488	2.992421	0.200781	0.219260	0.264336	-51.501014	-77.811537	179.220598
38521	4202390	8.844710	-1.834677	2.980575	0.211082	0.224432	0.264418	-51.464845	-77.762693	179.214511
38522	4202415	8.898402	-1.842953	2.980579	0.228554	0.225538	0.266844	-51.426204	-77.713176	179.209397
38523	4202440	8.925856	-1.884274	2.993725	0.238839	0.229864	0.270028	-51.385920	-77.663217	179.203164
38524	4202465	8.961731	-1.882768	2.964537	0.241475	0.227401	0.268151	-51.345934	-77.613686	179.197623
38525	4202490	8.997591	-1.827819	2.971383	0.241876	0.227168	0.269616	-51.306783	-77.564012	179.192993
38526	4202515	9.025179	-1.796179	2.972829	0.247118	0.227650	0.271943	-51.267163	-77.513727	179.189671
38527	4202540	8.999101	-1.754895	2.964967	0.249435	0.222595	0.272089	-51.230571	-77.464185	179.188770
38528	4202565	8.992320	-1.705339	2.953180	0.250216	0.217922	0.272100	-51.196354	-77.415061	179.190417
38529	4202590	9.032292	-1.692954	2.950562	0.248663	0.213189	0.267778	-51.163108	-77.366845	179.192832
38530	4202615	9.033613	-1.677958	2.985154	0.241250	0.212169	0.263153	-51.129081	-77.318923	179.194461
38531	4202640	8.992370	-1.596865	2.993405	0.228369	0.206086	0.258105	-51.098624	-77.272424	179.196756
38532	4202665	8.934644	-1.441589	3.044359	0.221528	0.201081	0.252344	-51.069421	-77.227019	179.199331
38533	4202690	8.911262	-1.377057	3.073777	0.215821	0.189362	0.247106	-51.044791	-77.183252	179.205759
38534	4202715	8.865804	-1.322206	3.112461	0.211389	0.176771	0.247522	-51.026515	-77.140254	179.219261
38537	4202740	8.820391	-1.312521	3.099195	0.193428	0.167838	0.239581	-51.012692	-77.099266	179.233486
38538	4202765	8.791449	-1.276904	3.132483	0.189658	0.152278	0.230235	-51.003281	-77.060721	179.251685
38539	4202790	8.725493	-1.187421	3.123453	0.179049	0.138736	0.222674	-50.998946	-77.024239	179.273537
38540	4202815	8.637250	-1.166979	3.176626	0.172278	0.123283	0.212161	-50.998185	-76.989996	179.299392
38541	4202840	8.575244	-1.153336	3.203187	0.164123	0.108425	0.198400	-51.001003	-76.958949	179.326398
38542	4202865	8.515940	-1.183619	3.220329	0.166614	0.094739	0.186943	-51.005510	-76.930410	179.355507
38543	4202890	8.456737	-1.123197	3.249715	0.163522	0.075631	0.167835	-51.012133	-76.905720	179.386337
38544	4202915	8.347953	-1.060039	3.277783	0.169131	0.052045	0.157802	-51.024539	-76.883942	179.425389
38545	4202940	8.299684	-1.068354	3.296363	0.167011	0.042222	0.151385	-51.040115	-76.864091	179.465931
38546	4202965	8.256952	-1.110960	3.300129	0.165474	0.027259	0.143641	-51.059979	-76.846447	179.510653
38547	4202990	8.187974	-1.170153	3.307885	0.160804	0.008504	0.134860	-51.085983	-76.831465	179.560997
38548	4203015	8.139701	-1.229257	3.306305	0.160441	-0.006056	0.116146	-51.110911	-76.819540	179.611775
38549	4203040	8.098366	-1.204556	3.322346	0.165892	-0.018087	0.103955	-51.136835	-76.810385	179.662789
38550	4203065	8.040638	-1.167347	3.302480	0.163868	-0.027838	0.094235	-51.163913	-76.803185	179.714694
38551	4203090	7.998019	-1.171333	3.269229	0.155666	-0.031939	0.089286	-51.192181	-76.796900	179.766615
38552	4203115	7.982873	-1.227569	3.226552	0.150640	-0.038315	0.078152	-51.219067	-76.792085	179.818096
38553	4203140	7.980035	-1.382758	3.172884	0.155307	-0.043899	0.077489	-51.248504	-76.788178	179.871167
38554	4203165	7.978692	-1.473294	3.104824	0.158161	-0.046544	0.064380	-51.273765	-76.785968	179.920370
38555	4203190	7.953985	-1.510188	3.044917	0.159177	-0.047982	0.054683	-51.295856	-76.784965	179.966466
38556	4203215	7.918285	-1.540201	2.986348	0.167993	-0.039914	0.044017	-51.307884	-76.784084	-179.994661
38557	4203240	7.866049	-1.600453	2.914341	0.176920	-0.034061	0.034943	-51.313273	-76.784037	-179.963110
38558	4203265	7.829013	-1.642738	2.827830	0.183946	-0.019644	0.021213	-51.305557	-76.784235	-179.943988
38559	4203290	7.761683	-1.685032	2.743918	0.192694	-0.006205	0.006297	-51.284502	-76.784897	-179.937280
38560	4203315	7.724716	-1.676459	2.657604	0.209092	0.001507	0.002299	-51.254982	-76.784964	-179.934965
38561	4203340	7.745657	-1.682878	2.538004	0.226082	0.013947	-0.005886	-51.214904	-76.785181	-179.942886
38562	4203365	7.736405	-1.649312	2.401296	0.250398	0.032081	-0.010024	-51.161141	-76.784231	-179.961285
38563	4203390	7.756129	-1.625359	2.237922	0.278004	0.046848	-0.016290	-51.094020	-76.782647	-179.989344
38564	4203415	7.881757	-1.657812	2.094414	0.319651	0.067259	-0.016920	-51.010089	-76.778931	179.973391
38565	4203440	7.986775	-1.749275	1.897512	0.358097	0.081362	-0.016059	-50.915276	-76.774189	179.928670
38566	4203465	8.146874	-1.780323	1.728812	0.408259	0.096612	-0.014903	-50.806570	-76.767923	179.877058
38567	4203490	8.338819	-1.861868	1.478854	0.453091	0.118695	-0.018875	-50.679581	-76.760070	179.813259
38568	4203515	8.614633	-1.942330	1.272815	0.502989	0.141674	-0.010554	-50.537046	-76.748814	179.742760
38569	4203540	8.849162	-2.014474	1.066758	0.561343	0.171888	-0.012966	-50.372177	-76.735384	179.655968
38570	4203565	9.090575	-2.064665	0.868779	0.625566	0.209297	-0.001061	-50.185536	-76.717158	179.556253
38571	4203590	9.326455	-2.130032	0.673378	0.683239	0.241719	0.010289	-49.980393	-76.694626	179.446006
38572	4203615	9.588491	-2.167906	0.498063	0.743033	0.283100	0.026029	-49.753362	-76.666095	179.323926
38573	4203640	9.839585	-2.226296	0.280098	0.800842	0.325582	0.050767	-49.509863	-76.631166	179.191545
38574	4203665	10.175817	-2.355038	0.117796	0.864291	0.373019	0.073704	-49.245630	-76.589185	179.047173
38575	4203690	10.486008	-2.545344	-0.124452	0.919626	0.423688	0.101778	-48.962866	-76.539253	178.891869
38576	4203715	10.805772	-2.638346	-0.286672	0.978293	0.490453	0.132783	-48.654786	-76.479138	178.720884
38577	4203740	11.122830	-2.720270	-0.458073	1.044718	0.554970	0.171724	-48.326855	-76.408857	178.537471
38578	4203765	11.492076	-2.801115	-0.572456	1.112010	0.624971	0.217639	-47.979323	-76.326736	178.343751
38579	4203790	11.811567	-2.917825	-0.636444	1.192335	0.690958	0.265758	-47.613924	-76.232876	178.143408
38580	4203815	12.252013	-3.165343	-0.674209	1.278768	0.749843	0.313935	-47.233104	-76.127568	177.941415
38581	4203840	12.608362	-3.382702	-0.662821	1.378953	0.799865	0.348701	-46.835685	-76.013759	177.735443
38582	4203865	12.931661	-3.587689	-0.652653	1.464948	0.836339	0.383374	-46.429336	-75.892407	177.532859
38583	4203890	13.311606	-3.718378	-0.664920	1.539488	0.870095	0.407239	-46.013102	-75.764891	177.330981
38584	4203915	13.675056	-3.870872	-0.713038	1.600975	0.900366	0.411775	-45.582601	-75.633177	177.124687
38585	4203940	13.914685	-4.017750	-0.781096	1.631983	0.928540	0.398757	-45.137829	-75.499916	176.906786
38586	4203965	14.030288	-4.101555	-0.803933	1.631867	0.951786	0.379587	-44.682600	-75.365812	176.677932
38587	4203990	14.228555	-4.131844	-0.798602	1.601307	0.979538	0.343302	-44.213235	-75.232050	176.429799
38588	4204015	14.414406	-4.106028	-0.746631	1.562129	0.991234	0.310239	-43.738188	-75.099514	176.170894
38589	4204040	14.608265	-3.978938	-0.540222	1.524103	0.978675	0.272514	-43.265394	-74.971800	175.907463
38590	4204065	14.683642	-3.814850	-0.301791	1.495076	0.935180	0.241554	-42.806559	-74.851118	175.654029
38591	4204090	14.748201	-3.607890	-0.117792	1.461653	0.877991	0.206183	-42.364640	-74.739380	175.413024
38592	4204115	14.814276	-3.540666	-0.067116	1.393508	0.819062	0.187124	-41.950211	-74.634929	175.191117
38593	4204140	14.921404	-3.435579	0.119252	1.292736	0.753607	0.169432	-41.570444	-74.539089	174.989244
38594	4204165	15.038058	-3.301766	0.365582	1.243863	0.664792	0.150530	-41.224067	-74.454245	174.814670
38595	4204190	15.113154	-3.239678	0.666017	1.214988	0.550519	0.138152	-40.918219	-74.382641	174.677810
38596	4204215	15.214444	-3.261094	0.898452	1.185775	0.428841	0.118163	-40.651040	-74.325597	174.577394
38597	4204240	15.369888	-3.166750	1.026400	1.133046	0.302777	0.097938	-40.426808	-74.284367	174.513044
38598	4204265	15.517061	-3.121783	1.126309	1.067800	0.171836	0.088283	-40.251939	-74.258268	174.490257
38599	4204290	15.675456	-3.032573	1.166545	0.982516	0.044672	0.077000	-40.126863	-74.247111	174.506510
38600	4204315	15.942396	-3.060423	1.246297	0.881446	-0.081301	0.078033	-40.057696	-74.249355	174.566364
38601	4204340	16.121039	-3.081703	1.379234	0.779876	-0.204361	0.078300	-40.043678	-74.265394	174.667845
38602	4204365	16.228490	-3.032220	1.408710	0.689031	-0.326079	0.082892	-40.084490	-74.294347	174.812759
38603	4204390	16.483387	-3.008718	1.371711	0.602457	-0.446121	0.084476	-40.178243	-74.336254	174.999754
38604	4204415	16.760058	-2.973346	1.445148	0.508294	-0.550336	0.079207	-40.318555	-74.389634	175.221496
38605	4204440	16.951589	-2.844222	1.476238	0.423630	-0.652926	0.076289	-40.505636	-74.454608	175.478689
38606	4204465	17.080775	-2.811701	1.598664	0.357454	-0.749987	0.077000	-40.737126	-74.529815	175.772045
38607	4204490	17.155056	-2.647164	1.732126	0.306469	-0.846297	0.066024	-41.007069	-74.616139	176.097600
38608	4204515	17.063000	-2.397077	1.797992	0.270598	-0.933188	0.065814	-41.315254	-74.711124	176.457724
38609	4204540	16.969601	-2.192211	1.813344	0.232890	-1.005580	0.060181	-41.656397	-74.814162	176.845854
38610	4204565	16.851337	-2.073952	1.819012	0.188285	-1.063024	0.061072	-42.029692	-74.922606	177.260478
38611	4204590	16.690280	-2.060136	1.799071	0.123707	-1.110433	0.072140	-42.439446	-75.034271	177.703059
38612	4204615	16.452273	-2.058379	1.701981	0.057839	-1.122305	0.085390	-42.874374	-75.144773	178.162072
38613	4204640	16.291172	-2.176258	1.616589	-0.016584	-1.121954	0.098309	-43.331875	-75.253330	178.632801
38614	4204665	16.178139	-2.360176	1.545594	-0.086646	-1.093413	0.110105	-43.800099	-75.356785	179.104011
38615	4204690	15.989290	-2.519614	1.513105	-0.126603	-1.051660	0.106324	-44.263097	-75.455342	179.563688
38616	4204715	15.770084	-2.687352	1.517736	-0.139496	-0.996253	0.102806	-44.710844	-75.547398	-179.994156
38617	4204740	15.557851	-2.857682	1.482561	-0.146095	-0.933934	0.096150	-45.138132	-75.633227	-179.574612
38618	4204765	15.384346	-2.912466	1.431850	-0.151056	-0.857422	0.100735	-45.542253	-75.710126	-179.179865
38619	4204790	15.140401	-3.027968	1.424694	-0.134073	-0.771326	0.102817	-45.914066	-75.777539	-178.816070
38620	4204815	14.906053	-3.123027	1.494570	-0.101437	-0.701039	0.113541	-46.259753	-75.836039	-178.474238
38621	4204840	14.614155	-3.297096	1.351824	-0.068143	-0.605080	0.105904	-46.561067	-75.885642	-178.173593
38622	4204865	14.341536	-3.354561	1.289064	-0.037600	-0.478296	0.097331	-46.803906	-75.923329	-177.928785
38623	4204890	13.974961	-3.400095	1.355211	0.002080	-0.336708	0.075045	-46.974350	-75.949272	-177.752784
38624	4204915	13.631598	-3.358197	1.558354	0.014490	-0.172721	0.059383	-47.068417	-75.960484	-177.653530
38625	4204940	13.330902	-3.184604	1.855048	0.021522	-0.040410	0.050184	-47.102738	-75.959989	-177.614991
38626	4204965	13.100534	-2.940887	2.153246	0.018583	0.081660	0.055441	-47.088318	-75.947038	-177.627128
38627	4204990	12.867134	-2.819785	2.493584	-0.003700	0.179786	0.062782	-47.038918	-75.923740	-177.678617
38628	4205015	12.717882	-2.736838	2.759401	-0.021908	0.241883	0.072540	-46.969950	-75.893080	-177.752842
38629	4205040	12.550658	-2.740465	2.994412	-0.053328	0.282139	0.083673	-46.893652	-75.857556	-177.839412
38630	4205065	12.349208	-2.725923	3.168351	-0.067696	0.295635	0.083031	-46.813988	-75.820749	-177.931590
38631	4205090	12.132782	-2.742671	3.242562	-0.070456	0.295590	0.101015	-46.742149	-75.782039	-178.016119
38632	4205115	11.935578	-2.800667	3.320608	-0.053884	0.276531	0.107241	-46.678334	-75.744259	-178.089783
38633	4205140	11.778271	-2.946581	3.373155	-0.024600	0.249648	0.109264	-46.622711	-75.709161	-178.150830
38634	4205165	11.603096	-3.093755	3.392521	0.015900	0.217076	0.100395	-46.571429	-75.678178	-178.201420
38635	4205190	11.436413	-3.180247	3.360228	0.071348	0.171822	0.091790	-46.527503	-75.652537	-178.236225
38636	4205215	11.284978	-3.250096	3.300106	0.126640	0.134206	0.080763	-46.486553	-75.631467	-178.259636
38637	4205240	11.143400	-3.288097	3.169674	0.181407	0.092806	0.061043	-46.447286	-75.616802	-178.273364
38640	4205265	10.952387	-3.286011	2.990285	0.237423	0.052212	0.040066	-46.408395	-75.608320	-178.278421
38641	4205290	10.768594	-3.170972	2.763313	0.282599	0.027053	0.027236	-46.368285	-75.603653	-178.278056
38642	4205315	10.593013	-3.018897	2.568441	0.310573	0.007284	0.018075	-46.328382	-75.601605	-178.273222
38643	4205340	10.420100	-2.902697	2.385362	0.331424	-0.001112	0.011195	-46.286484	-75.601387	-178.267483
38644	4205365	10.300793	-2.840171	2.214145	0.346173	-0.000185	0.002934	-46.238914	-75.601933	-178.265418
38645	4205390	10.193725	-2.819029	2.085240	0.356624	0.006692	-0.005366	-46.183870	-75.602656	-178.269525
38646	4205415	10.079763	-2.807516	1.951052	0.351764	0.012317	-0.009540	-46.125403	-75.602960	-178.277810
38647	4205440	9.957477	-2.774110	1.858088	0.361270	0.021662	-0.011888	-46.061146	-75.602867	-178.290742
38648	4205465	9.788338	-2.717451	1.787741	0.353546	0.035891	-0.014064	-45.991440	-75.601579	-178.310441
38649	4205490	9.620462	-2.718559	1.730491	0.355192	0.048372	-0.012738	-45.917016	-75.598906	-178.334767
38650	4205515	9.413955	-2.718415	1.706481	0.356545	0.055027	-0.019848	-45.836772	-75.595998	-178.364891
38651	4205540	9.136796	-2.773846	1.819031	0.369184	0.051628	-0.018305	-45.756915	-75.593554	-178.392757
38652	4205565	9.088623	-2.733934	1.835071	0.421873	0.028826	-0.015588	-45.679688	-75.593103	-178.410117
38653	4205590	9.061589	-2.679656	1.655851	0.432161	0.009851	-0.033320	-45.601640	-75.596362	-178.426803
38654	4205615	8.834584	-2.694352	1.557343	0.406073	0.000174	-0.051934	-45.523691	-75.602191	-178.447298
38655	4205640	8.705255	-2.707868	1.502719	0.355920	-0.017963	-0.070086	-45.453199	-75.611988	-178.467456
38656	4205665	8.519547	-2.645768	1.454993	0.308043	-0.027789	-0.096162	-45.383187	-75.625427	-178.494198
38657	4205690	8.303715	-2.503815	1.378290	0.258629	-0.043215	-0.111838	-45.320141	-75.642008	-178.521054
38658	4205715	8.118282	-2.337005	1.279083	0.211227	-0.064072	-0.119247	-45.268994	-75.661137	-178.542759
38659	4205740	7.993199	-2.285845	1.208764	0.165042	-0.077118	-0.118144	-45.230178	-75.681766	-178.558438
38660	4205765	7.839027	-2.266491	1.195444	0.118384	-0.098576	-0.115138	-45.207722	-75.704254	-178.564129
38661	4205790	7.716862	-2.205485	1.065390	0.079265	-0.111179	-0.113857	-45.196374	-75.727882	-178.564139
38662	4205815	7.599986	-2.192807	1.000248	0.042199	-0.123382	-0.111164	-45.196120	-75.752165	-178.558372
38663	4205840	7.459642	-2.202221	0.948312	0.007448	-0.135569	-0.119621	-45.202533	-75.778841	-178.550672
38664	4205865	7.326133	-2.184206	0.923075	-0.025061	-0.145267	-0.124253	-45.215683	-75.806966	-178.540827
38665	4205890	7.163876	-2.122059	0.862040	-0.040102	-0.156933	-0.138330	-45.230108	-75.837699	-178.531889
38666	4205915	7.013967	-2.084662	0.803624	-0.060599	-0.167094	-0.146867	-45.248075	-75.870020	-178.522594
38667	4205940	6.884852	-2.004523	0.706846	-0.079486	-0.172800	-0.144543	-45.272191	-75.902984	-178.509483
38668	4205965	6.776167	-2.012565	0.665581	-0.096002	-0.177732	-0.161931	-45.293772	-75.938213	-178.501428
38669	4205990	6.682533	-2.030369	0.648181	-0.108570	-0.176996	-0.168638	-45.314225	-75.974050	-178.496392
38670	4206015	6.580678	-2.001451	0.646892	-0.106789	-0.188240	-0.183208	-45.333084	-76.012198	-178.493079
38671	4206040	6.429406	-1.947560	0.583213	-0.105961	-0.184587	-0.190319	-45.347615	-76.051007	-178.493762
38672	4206065	6.320775	-1.937693	0.527368	-0.116386	-0.185612	-0.202970	-45.358959	-76.091209	-178.499266
38673	4206090	6.196885	-1.916983	0.511428	-0.126293	-0.186831	-0.215615	-45.367090	-76.132823	-178.509542
38674	4206115	6.075854	-1.868715	0.478299	-0.133182	-0.178614	-0.222154	-45.370040	-76.173971	-178.526589
38675	4206140	5.958920	-1.803998	0.463854	-0.139573	-0.171623	-0.224882	-45.369927	-76.214999	-178.547309
38676	4206165	5.881701	-1.874106	0.462236	-0.146529	-0.162205	-0.236304	-45.362126	-76.256244	-178.576967
38677	4206190	5.786839	-1.835430	0.422447	-0.156362	-0.153993	-0.251241	-45.346022	-76.298183	-178.616615
38678	4206215	5.712579	-1.805068	0.398600	-0.158247	-0.146179	-0.254759	-45.325231	-76.339383	-178.661860
38679	4206240	5.644828	-1.838371	0.482139	-0.142276	-0.135665	-0.267714	-45.292199	-76.381145	-178.716837
38680	4206265	5.509804	-1.776717	0.550013	-0.133197	-0.138858	-0.286302	-45.251177	-76.425113	-178.778688
38681	4206290	5.418917	-1.725911	0.578042	-0.114279	-0.139239	-0.296624	-45.202939	-76.470157	-178.845162
38682	4206315	5.333854	-1.626608	0.503916	-0.111400	-0.144690	-0.313099	-45.149246	-76.517104	-178.917380
38683	4206340	5.248487	-1.586772	0.521256	-0.107439	-0.143608	-0.324874	-45.089130	-76.565427	-178.995035
38684	4206365	5.126146	-1.462901	0.504337	-0.084488	-0.153777	-0.330083	-45.027336	-76.615289	-179.071018
38685	4206390	4.979065	-1.388377	0.434077	-0.061940	-0.161731	-0.325273	-44.967246	-76.665450	-179.141914
38686	4206415	4.877230	-1.395056	0.395469	-0.051160	-0.164579	-0.330204	-44.904217	-76.716073	-179.214857
38687	4206440	4.775350	-1.378535	0.392804	-0.027242	-0.174259	-0.332934	-44.840216	-76.768244	-179.284636
38688	4206465	4.652861	-1.414064	0.340791	-0.005504	-0.178452	-0.332953	-44.774366	-76.820825	-179.353101
38689	4206490	4.570148	-1.456709	0.347243	0.010546	-0.182189	-0.341205	-44.703689	-76.874599	-179.424147
38690	4206515	4.450195	-1.489863	0.389600	0.037307	-0.189340	-0.349748	-44.627967	-76.929633	-179.497111
38691	4206540	4.362206	-1.448432	0.353786	0.065425	-0.199546	-0.361389	-44.546852	-76.987165	-179.570770
38692	4206565	4.286442	-1.447074	0.361723	0.102548	-0.209285	-0.370988	-44.459707	-77.046631	-179.645143
38693	4206590	4.225870	-1.458021	0.352387	0.155406	-0.227796	-0.383946	-44.366537	-77.109264	-179.717912
38694	4206615	4.155741	-1.445486	0.315157	0.215873	-0.237514	-0.398693	-44.261564	-77.174030	-179.794639
38695	4206640	4.005759	-1.408201	0.281987	0.267267	-0.250574	-0.422968	-44.142978	-77.242838	-179.877002
38696	4206665	3.890050	-1.353340	0.327260	0.325102	-0.268699	-0.435129	-44.017457	-77.314684	-179.957958
38697	4206690	3.811809	-1.303538	0.250327	0.381704	-0.286055	-0.447425	-43.884672	-77.389502	179.961973
38698	4206715	3.708634	-1.293736	0.209113	0.436407	-0.301258	-0.461581	-43.743048	-77.466942	179.880082
38699	4206740	3.613602	-1.279993	0.215724	0.480945	-0.312477	-0.471188	-43.594066	-77.546761	179.798032
38700	4206765	3.521400	-1.267560	0.205101	0.518498	-0.335488	-0.478616	-43.445028	-77.629656	179.721457
38701	4206790	3.387923	-1.186389	0.207945	0.567131	-0.353119	-0.492820	-43.288650	-77.715739	179.644526
38702	4206815	3.295816	-1.151802	0.154837	0.596748	-0.369024	-0.496706	-43.131840	-77.803508	179.570639
38703	4206840	3.244812	-1.199906	0.149350	0.626145	-0.388053	-0.496140	-42.977964	-77.893482	179.504965
38704	4206865	3.269522	-1.296063	0.117147	0.644168	-0.407410	-0.513178	-42.820325	-77.987111	179.438104
38705	4206890	3.339496	-1.469397	0.129909	0.670721	-0.423938	-0.541058	-42.650821	-78.085148	179.363027
38706	4206915	3.358674	-1.513461	0.140414	0.700853	-0.443247	-0.566249	-42.471361	-78.187302	179.281261
38707	4206940	3.382062	-1.556047	0.129664	0.725594	-0.459898	-0.597763	-42.277565	-78.294519	179.189456
38708	4206965	3.437150	-1.572522	0.116336	0.756577	-0.478500	-0.618886	-42.074466	-78.405676	179.092721
38709	4206990	3.540417	-1.583553	0.116373	0.787941	-0.499562	-0.637904	-41.863916	-78.520827	178.993004
38710	4207015	3.637039	-1.585991	0.030063	0.806983	-0.515475	-0.647508	-41.650157	-78.638205	178.891794
38711	4207040	3.806501	-1.620238	-0.019108	0.820126	-0.528492	-0.649418	-41.436207	-78.757400	178.793394
38712	4207065	4.050430	-1.646122	-0.101410	0.829228	-0.532793	-0.658337	-41.214806	-78.877827	178.688770
38713	4207090	4.291683	-1.622440	-0.191524	0.825648	-0.533061	-0.652133	-40.993953	-78.997619	178.584223
38714	4207115	4.557756	-1.611108	-0.294973	0.813559	-0.529015	-0.633122	-40.780314	-79.114800	178.484155
38715	4207140	4.815606	-1.574993	-0.406300	0.781381	-0.514241	-0.608438	-40.574496	-79.228316	178.388543
38716	4207165	5.067980	-1.548469	-0.529630	0.743939	-0.498836	-0.572503	-40.384089	-79.336748	178.303194
38717	4207190	5.365742	-1.520619	-0.632990	0.685249	-0.472662	-0.525512	-40.213878	-79.437918	178.229867
38718	4207215	5.656619	-1.525707	-0.763057	0.625534	-0.440134	-0.472701	-40.065362	-79.530300	178.168666
38719	4207240	5.929539	-1.543234	-0.871899	0.560022	-0.399478	-0.412259	-39.939848	-79.612940	178.122592
38720	4207265	6.195541	-1.563559	-0.972780	0.479007	-0.349098	-0.348586	-39.837671	-79.684178	178.088456
38721	4207290	6.376207	-1.563193	-1.064347	0.395151	-0.297228	-0.272127	-39.766851	-79.742687	178.073989
38722	4207315	6.536275	-1.491399	-1.153036	0.306538	-0.243154	-0.209981	-39.719242	-79.789242	178.068815
38723	4207340	6.656179	-1.478922	-1.183482	0.211908	-0.184186	-0.142248	-39.696064	-79.823405	178.076090
38724	4207365	6.730582	-1.443211	-1.180690	0.108463	-0.129494	-0.070260	-39.704036	-79.844954	178.099956
38725	4207390	6.817315	-1.458376	-1.176676	-0.003092	-0.067538	-0.000890	-39.739078	-79.853325	178.135090
38726	4207415	6.854394	-1.506520	-1.163563	-0.120364	-0.012873	0.064321	-39.803606	-79.849400	178.181581
38727	4207440	6.936955	-1.560185	-1.166336	-0.247328	0.043412	0.118279	-39.890022	-79.834619	178.233366
38728	4207465	6.993246	-1.598873	-1.118614	-0.374052	0.098279	0.167176	-39.996154	-79.809300	178.286742
38729	4207490	7.049447	-1.670623	-1.053713	-0.504297	0.144707	0.220111	-40.128945	-79.773992	178.348256
38730	4207515	7.043648	-1.730055	-0.975541	-0.636721	0.189741	0.261542	-40.282589	-79.729608	178.410020
38731	4207540	7.066798	-1.751046	-0.874601	-0.755680	0.223725	0.297120	-40.455728	-79.678474	178.475962
38732	4207565	7.083023	-1.785804	-0.779075	-0.873317	0.254965	0.333163	-40.650019	-79.620546	178.546288
38733	4207590	7.099172	-1.860488	-0.665045	-0.994823	0.276579	0.367339	-40.869344	-79.557031	178.624384
38734	4207615	7.109841	-1.877445	-0.538896	-1.116972	0.296150	0.389081	-41.107687	-79.489015	178.702238
38735	4207640	7.108161	-1.858721	-0.404652	-1.222618	0.305669	0.419519	-41.371205	-79.417324	178.792131
38736	4207665	7.116215	-1.808265	-0.287581	-1.326967	0.307881	0.445853	-41.661144	-79.342817	178.893720
38737	4207690	7.118771	-1.734448	-0.169073	-1.418739	0.302372	0.473686	-41.979925	-79.266141	179.011309
38738	4207715	7.169486	-1.678554	-0.038652	-1.498882	0.297953	0.498574	-42.323761	-79.187132	179.140828
38741	4207740	7.230990	-1.636729	0.183428	-1.555927	0.291506	0.522556	-42.688085	-79.106618	179.284842
38742	4207765	7.240068	-1.542901	0.458741	-1.592520	0.274566	0.544240	-43.074176	-79.025593	179.445727
38743	4207790	7.187349	-1.499602	0.646179	-1.627244	0.251563	0.551095	-43.476472	-78.946086	179.618095
38744	4207815	7.218831	-1.429893	0.764725	-1.663045	0.232959	0.560976	-43.894980	-78.867008	179.799832
38745	4207840	7.230843	-1.426355	0.929486	-1.696219	0.213969	0.570822	-44.328063	-78.788928	179.993606
38746	4207865	7.204261	-1.384455	1.118282	-1.712194	0.183951	0.571931	-44.774820	-78.713515	-179.800961
38747	4207890	7.129614	-1.320364	1.265882	-1.729061	0.151619	0.569086	-45.234576	-78.641349	-179.584681
38748	4207915	7.162407	-1.271340	1.404305	-1.744054	0.126711	0.562075	-45.701940	-78.571772	-179.364763
38749	4207940	7.154928	-1.269457	1.647438	-1.729766	0.095698	0.551428	-46.173060	-78.506313	-179.136886
38750	4207965	7.197098	-1.222230	1.885450	-1.678242	0.064318	0.540632	-46.643626	-78.444703	-178.901990
38751	4207990	7.268299	-1.202310	2.067588	-1.600368	0.028396	0.523955	-47.109722	-78.387973	-178.660223
38752	4208015	7.467630	-1.212520	2.205876	-1.512454	-0.006802	0.512638	-47.573037	-78.335165	-178.410335
38753	4208040	7.585611	-1.268054	2.366528	-1.381918	-0.048213	0.500828	-48.029737	-78.287483	-178.146117
38754	4208065	7.560410	-1.451286	2.419093	-1.237754	-0.097317	0.481756	-48.479462	-78.246101	-177.867889
38755	4208090	7.688508	-1.508876	2.369863	-1.091648	-0.102176	0.457280	-48.897199	-78.207385	-177.600919
38756	4208115	7.787627	-1.610467	2.321777	-0.954645	-0.092426	0.433730	-49.278002	-78.169623	-177.353490
38757	4208140	7.881137	-1.712223	2.312244	-0.833875	-0.050953	0.400384	-49.602819	-78.131616	-177.143662
38758	4208165	7.937473	-1.743999	2.340074	-0.719057	0.008190	0.383540	-49.871430	-78.089752	-176.974433
38759	4208190	8.011734	-1.733192	2.387962	-0.621292	0.072543	0.379822	-50.089535	-78.042221	-176.842486
38760	4208215	8.116111	-1.783063	2.476882	-0.537244	0.137658	0.369708	-50.256601	-77.989428	-176.752239
38761	4208240	8.293800	-1.780319	2.457064	-0.479271	0.202608	0.359333	-50.375879	-77.932100	-176.700489
38762	4208265	8.489586	-1.738804	2.380289	-0.429761	0.296302	0.348996	-50.434747	-77.867342	-176.703258
38763	4208290	8.721099	-1.659072	2.370067	-0.385635	0.395329	0.351812	-50.437633	-77.793239	-176.756830
38764	4208315	8.904359	-1.571127	2.377106	-0.360480	0.499974	0.360817	-50.388379	-77.708271	-176.861894
38765	4208340	9.138528	-1.521721	2.396003	-0.335829	0.606489	0.374517	-50.288503	-77.612340	-177.013390
38766	4208365	9.230448	-1.571691	2.523397	-0.319102	0.694032	0.377758	-50.146043	-77.507961	-177.206099
38767	4208390	9.321139	-1.528089	2.624503	-0.318074	0.757022	0.367820	-49.971198	-77.398765	-177.431913
38768	4208415	9.518146	-1.562274	2.563383	-0.307719	0.796783	0.354110	-49.773786	-77.286924	-177.681177
38769	4208440	9.809038	-1.453512	2.512061	-0.315100	0.837778	0.339820	-49.555458	-77.172964	-177.951338
38770	4208465	9.989613	-1.347683	2.509854	-0.309934	0.856179	0.346012	-49.334506	-77.056389	-178.223556
38771	4208490	10.222561	-1.293884	2.452965	-0.308678	0.862634	0.349012	-49.115969	-76.938652	-178.493238
38772	4208515	10.528699	-1.334460	2.259022	-0.299637	0.866935	0.365716	-48.905597	-76.818161	-178.755008
38773	4208540	10.920360	-1.420109	1.987949	-0.289629	0.865518	0.380917	-48.704414	-76.696271	-179.004322
38774	4208565	11.389005	-1.503340	1.774026	-0.284268	0.882663	0.388205	-48.501744	-76.571774	-179.254503
38775	4208590	11.901513	-1.579906	1.655815	-0.284879	0.900878	0.385290	-48.294079	-76.445650	-179.510041
38776	4208615	12.458135	-1.631775	1.519096	-0.288911	0.914896	0.375378	-48.081576	-76.318716	-179.772928
38777	4208640	12.968126	-1.584576	1.368088	-0.293982	0.936631	0.363991	-47.859929	-76.190988	179.955522
38778	4208665	13.435382	-1.520969	1.252988	-0.285854	0.954415	0.359048	-47.632125	-76.061820	179.678681
38779	4208690	13.895591	-1.435662	1.204365	-0.301822	0.970874	0.365281	-47.406709	-75.930140	179.401787
38780	4208715	14.435645	-1.410703	1.127764	-0.343490	0.990752	0.378928	-47.189259	-75.794532	179.125161
38781	4208740	14.719673	-1.380167	1.019135	-0.392614	1.024457	0.389572	-46.973354	-75.654569	178.844331
38782	4208765	14.996522	-1.312943	1.052744	-0.457439	1.058583	0.405543	-46.763772	-75.509338	178.560263
38783	4208790	15.200263	-1.245834	1.132779	-0.523687	1.093472	0.412870	-46.557401	-75.359658	178.269520
38784	4208815	15.358370	-1.151624	1.300542	-0.602064	1.119240	0.420936	-46.360522	-75.206055	177.975173
38785	4208840	15.590335	-1.100805	1.672743	-0.682259	1.122444	0.437644	-46.184687	-75.050450	177.692114
38786	4208865	15.714988	-1.064732	1.949274	-0.757370	1.085193	0.441402	-46.039886	-74.897954	177.429845
38787	4208890	15.999647	-0.970719	2.167520	-0.810527	1.030255	0.436095	-45.925503	-74.751319	177.191019
38788	4208915	16.430446	-0.960125	2.270070	-0.850688	0.964697	0.440042	-45.846462	-74.610438	176.981180
38789	4208940	16.813175	-0.919265	2.351510	-0.878101	0.894902	0.435651	-45.797766	-74.477186	176.800142
38790	4208965	17.239831	-0.978719	2.426010	-0.892212	0.831748	0.427552	-45.773265	-74.351043	176.642010
38791	4208990	17.512241	-1.056005	2.492343	-0.904438	0.757292	0.401706	-45.769852	-74.234981	176.503871
38792	4209015	17.648196	-1.037466	2.665197	-0.889808	0.687556	0.384815	-45.784939	-74.127368	176.385643
38793	4209040	17.691994	-1.022740	2.772886	-0.846169	0.601028	0.373432	-45.821198	-74.029835	176.297292
38794	4209065	17.694030	-1.199392	2.979639	-0.820285	0.525104	0.328015	-45.865418	-73.944561	176.221040
38795	4209090	17.617722	-1.348555	3.101358	-0.815240	0.447902	0.280592	-45.920175	-73.871880	176.156477
38796	4209115	17.169806	-1.407961	3.215159	-0.824081	0.368923	0.238496	-45.990097	-73.811175	176.105064
38797	4209140	16.789002	-1.724555	3.306869	-0.840040	0.294927	0.195459	-46.073412	-73.762527	176.066502
38798	4209165	16.565457	-1.829493	3.427329	-0.881717	0.220433	0.154448	-46.174945	-73.725527	176.040691
38799	4209190	16.296132	-2.089997	3.588419	-0.911847	0.143288	0.116506	-46.295046	-73.700109	176.029724
38800	4209215	15.946084	-2.212499	3.612968	-0.913872	0.065418	0.091854	-46.434796	-73.684714	176.037728
38801	4209240	15.664892	-2.269041	3.673886	-0.876333	-0.005445	0.076516	-46.588741	-73.678129	176.067325
38802	4209265	15.503456	-2.372400	3.731889	-0.826346	-0.064421	0.072761	-46.755182	-73.677709	176.117402
38803	4209290	15.287110	-2.442519	3.740904	-0.742875	-0.118677	0.079671	-46.931342	-73.681840	176.190065
38804	4209315	15.153364	-2.501805	3.777719	-0.658378	-0.175579	0.089072	-47.119227	-73.690242	176.286448
38805	4209340	15.003449	-2.454698	3.730020	-0.578724	-0.236140	0.077496	-47.313547	-73.705897	176.402523
38806	4209365	14.903316	-2.381373	3.601376	-0.505422	-0.282574	0.060461	-47.508795	-73.727738	176.530491
38807	4209390	14.923079	-2.301028	3.462096	-0.452425	-0.313658	0.032736	-47.698994	-73.755394	176.661092
38808	4209415	14.890505	-2.075266	3.388460	-0.425272	-0.345776	0.006451	-47.889098	-73.788574	176.794609
38809	4209440	14.788763	-1.914415	3.414189	-0.410806	-0.362216	-0.012258	-48.077438	-73.825431	176.929438
38810	4209465	14.651312	-1.771388	3.391976	-0.416632	-0.377597	-0.030324	-48.267067	-73.865561	177.064714
38811	4209490	14.620232	-1.509783	3.302483	-0.427847	-0.393006	-0.022912	-48.467269	-73.906236	177.209296
38812	4209515	14.553436	-1.253541	3.174453	-0.456514	-0.397868	0.007185	-48.684334	-73.943763	177.366233
38813	4209540	14.440966	-1.217091	3.005870	-0.504279	-0.378135	0.030254	-48.909095	-73.977003	177.524923
38814	4209565	14.244212	-1.220850	2.920756	-0.558475	-0.344724	0.044191	-49.134353	-74.005425	177.676030
38815	4209590	14.038717	-1.260949	3.020086	-0.611454	-0.314289	0.035745	-49.353558	-74.031756	177.812925
38816	4209615	13.853776	-1.249213	3.191374	-0.660913	-0.295802	0.020042	-49.568405	-74.057709	177.937141
38817	4209640	13.619211	-1.266323	3.369201	-0.702785	-0.292902	0.010690	-49.785522	-74.084507	178.058224
38818	4209665	13.332595	-1.239089	3.454121	-0.728217	-0.298224	-0.007339	-50.003060	-74.113646	178.175941
38819	4209690	13.073527	-1.180272	3.555158	-0.748272	-0.306231	-0.021084	-50.222743	-74.144908	178.292883
38820	4209715	12.879099	-1.142168	3.676058	-0.769822	-0.309806	-0.029695	-50.444870	-74.177103	178.408540
38821	4209740	12.767557	-1.073545	3.713452	-0.769857	-0.324968	-0.041553	-50.669728	-74.212085	178.527610
38822	4209765	12.848788	-1.102372	3.704150	-0.770447	-0.326234	-0.053039	-50.892240	-74.248329	178.644134
38823	4209790	13.062299	-1.121538	3.668348	-0.761974	-0.323953	-0.070857	-51.107705	-74.286230	178.754575
38824	4209815	13.183574	-1.015734	3.703274	-0.733613	-0.314920	-0.084084	-51.312080	-74.324471	178.857280
38825	4209840	13.340591	-0.871666	3.774309	-0.688173	-0.309317	-0.091144	-51.506169	-74.363121	178.956458
38826	4209865	13.562177	-0.888394	3.828786	-0.639585	-0.311641	-0.109084	-51.689230	-74.403903	179.051395
38827	4209890	13.730203	-0.885705	3.824932	-0.596906	-0.326499	-0.127383	-51.867081	-74.447981	179.147248
38828	4209915	13.869375	-0.893811	3.789106	-0.564025	-0.343393	-0.153753	-52.039431	-74.496234	179.242047
38829	4209940	13.908250	-0.856375	3.690908	-0.549275	-0.356174	-0.167966	-52.211252	-74.547353	179.338678
38830	4209965	13.889136	-0.883509	3.592568	-0.549376	-0.361630	-0.181355	-52.381961	-74.600389	179.434117
38831	4209990	13.839475	-0.987925	3.564254	-0.560252	-0.362937	-0.187784	-52.553638	-74.654195	179.528920
38832	4210015	13.716707	-1.136376	3.557069	-0.577200	-0.361633	-0.190847	-52.727054	-74.707953	179.622962
38833	4210040	13.501725	-1.304066	3.520471	-0.593378	-0.362238	-0.189212	-52.904603	-74.761707	179.718885
38834	4210065	13.245499	-1.430307	3.473409	-0.623146	-0.361011	-0.185715	-53.087971	-74.814875	179.816394
38835	4210090	12.931480	-1.520936	3.431706	-0.658313	-0.367400	-0.186893	-53.279698	-74.868643	179.917320
38836	4210115	12.612013	-1.561945	3.392848	-0.697895	-0.372455	-0.180870	-53.482043	-74.921855	-179.976520
38837	4210140	12.237301	-1.610112	3.408424	-0.743561	-0.368784	-0.161456	-53.696745	-74.972620	-179.864498
38838	4210165	11.826764	-1.630808	3.457253	-0.789044	-0.372759	-0.143813	-53.926353	-75.021568	-179.743814
38839	4210190	11.435425	-1.685968	3.512665	-0.837268	-0.377311	-0.134759	-54.168846	-75.069721	-179.616971
38840	4210215	11.102124	-1.658482	3.543097	-0.885870	-0.383632	-0.120686	-54.426467	-75.116416	-179.481428
38843	4210240	10.753660	-1.636525	3.574866	-0.924008	-0.386837	-0.114591	-54.694317	-75.162711	-179.341260
38844	4210265	10.431340	-1.613243	3.614618	-0.964438	-0.388955	-0.113276	-54.970578	-75.208856	-179.198413
38845	4210290	10.135302	-1.523885	3.641298	-0.988305	-0.401451	-0.111626	-55.257654	-75.255650	-179.047947
38846	4210315	9.839298	-1.445468	3.657351	-1.009714	-0.404093	-0.109080	-55.550877	-75.301957	-178.893895
38847	4210340	9.589940	-1.415391	3.711756	-1.026245	-0.411010	-0.110228	-55.850926	-75.348962	-178.735701
38848	4210365	9.259386	-1.382425	3.744897	-1.030082	-0.418939	-0.113061	-56.155730	-75.396726	-178.573194
38849	4210390	8.954872	-1.400425	3.799174	-1.021219	-0.430833	-0.114645	-56.465757	-75.445403	-178.404015
38850	4210415	8.648996	-1.466499	3.821349	-1.004981	-0.446867	-0.111155	-56.783172	-75.494482	-178.224233
38851	4210440	8.362381	-1.586052	3.815467	-0.988095	-0.462349	-0.112484	-57.107001	-75.544887	-178.035974
38852	4210465	8.126661	-1.683789	3.853535	-0.971988	-0.487286	-0.105369	-57.444139	-75.596094	-177.831632
38853	4210490	7.879913	-1.777425	3.892929	-0.964033	-0.518727	-0.102054	-57.797917	-75.649004	-177.608985
38854	4210515	7.601638	-1.826974	3.903206	-0.963289	-0.547803	-0.094810	-58.169289	-75.702673	-177.367355
38855	4210540	7.198690	-1.831555	3.673112	-0.958674	-0.564720	-0.078538	-58.555649	-75.755451	-177.110402
38856	4210565	6.924948	-1.906460	3.492053	-0.961692	-0.561811	-0.051235	-58.951384	-75.804236	-176.844281
38857	4210590	6.648320	-2.058424	3.325345	-0.967074	-0.550759	-0.030942	-59.350634	-75.849259	-176.575385
38858	4210615	6.538025	-2.177877	3.298317	-0.975341	-0.538622	-0.011982	-59.752155	-75.890372	-176.304530
38859	4210640	6.410059	-2.168176	3.268997	-0.962942	-0.523038	0.007828	-60.152267	-75.927674	-176.034233
38860	4210665	6.113292	-2.132774	3.009865	-0.934752	-0.509308	0.030665	-60.549690	-75.960702	-175.762586
38861	4210690	5.874444	-2.106769	2.701630	-0.896313	-0.467733	0.054906	-60.929078	-75.987341	-175.503888
38862	4210715	5.794758	-2.198385	2.567099	-0.860410	-0.427164	0.063331	-61.285837	-76.009480	-175.262270
38863	4210740	5.708229	-2.259718	2.431316	-0.825042	-0.376910	0.073081	-61.616252	-76.026834	-175.043570
38864	4210765	5.726227	-2.247244	2.407442	-0.781849	-0.332409	0.075544	-61.919198	-76.040570	-174.846815
38865	4210790	5.558871	-2.148843	2.197734	-0.734912	-0.291246	0.085770	-62.197664	-76.050008	-174.668368
38866	4210815	5.486564	-2.079123	1.962791	-0.685603	-0.240381	0.095125	-62.445259	-76.054438	-174.513442
38867	4210840	5.459437	-2.100457	1.779330	-0.638200	-0.179040	0.102866	-62.657416	-76.053924	-174.389050
38868	4210865	5.509271	-2.098674	1.677086	-0.597689	-0.120153	0.104472	-62.833972	-76.049240	-174.295360
38869	4210890	5.549610	-2.019876	1.564392	-0.564259	-0.061658	0.104503	-62.975633	-76.040674	-174.232690
38870	4210915	5.615841	-1.960663	1.546025	-0.529154	-0.018385	0.105254	-63.089510	-76.028922	-174.192436
38871	4210940	5.607924	-1.840755	1.476009	-0.483190	0.020085	0.106980	-63.177998	-76.014688	-174.172588
38872	4210965	5.579472	-1.754990	1.342055	-0.438744	0.058872	0.104190	-63.239401	-75.998300	-174.174091
38873	4210990	5.593551	-1.707845	1.245238	-0.394687	0.095932	0.097020	-63.273589	-75.980440	-174.197140
38874	4211015	5.569188	-1.615260	1.125946	-0.344567	0.125036	0.097010	-63.285076	-75.960460	-174.235147
38875	4211040	5.579132	-1.543447	1.046467	-0.304995	0.157875	0.093615	-63.273909	-75.939050	-174.291709
38876	4211065	5.609635	-1.512940	0.982820	-0.280268	0.184251	0.093028	-63.245709	-75.916009	-174.362185
38877	4211090	5.629052	-1.512746	0.924350	-0.243011	0.208639	0.092793	-63.199872	-75.891414	-174.445351
38878	4211115	5.649776	-1.503035	0.905798	-0.208050	0.223872	0.096230	-63.141797	-75.865124	-174.534934
38879	4211140	5.680127	-1.504357	0.887172	-0.187643	0.230821	0.088397	-63.076157	-75.839613	-174.630364
38880	4211165	5.718740	-1.467246	0.884682	-0.163610	0.232054	0.083192	-63.005403	-75.814659	-174.727526
38881	4211190	5.721573	-1.446527	0.870113	-0.141245	0.221294	0.076015	-62.935315	-75.791291	-174.820708
38882	4211215	5.701023	-1.428523	0.835624	-0.113733	0.205329	0.063935	-62.865864	-75.770224	-174.908127
38883	4211240	5.655651	-1.399584	0.825045	-0.089812	0.186326	0.057857	-62.801787	-75.751403	-174.987523
38884	4211265	5.668082	-1.413245	0.799758	-0.053437	0.160611	0.056581	-62.745241	-75.734409	-175.053781
38885	4211290	5.659917	-1.426831	0.753215	-0.022039	0.133176	0.051464	-62.696740	-75.719853	-175.107100
38886	4211315	5.668303	-1.373119	0.736102	0.016375	0.099894	0.049387	-62.658330	-75.707484	-175.143282
38887	4211340	5.602380	-1.338524	0.680402	0.045203	0.074755	0.031926	-62.624486	-75.699241	-175.171544
38888	4211365	5.603959	-1.277837	0.639402	0.080730	0.047015	0.024110	-62.597400	-75.693816	-175.187578
38889	4211390	5.517336	-1.226854	0.612931	0.117229	0.010955	0.016488	-62.581108	-75.691737	-175.187080
38890	4211415	5.466480	-1.170415	0.603812	0.156875	-0.020610	0.006102	-62.571592	-75.692806	-175.172679
38891	4211440	5.379908	-1.104229	0.566768	0.191528	-0.045593	-0.001226	-62.568270	-75.696710	-175.147813
38892	4211465	5.370247	-1.072721	0.594790	0.216907	-0.078705	-0.013492	-62.574664	-75.704358	-175.109168
38893	4211490	5.306977	-0.984738	0.612301	0.233458	-0.107096	-0.035422	-62.587213	-75.716666	-175.061727
38894	4211515	5.243621	-0.898305	0.667006	0.242630	-0.124335	-0.048664	-62.603091	-75.731538	-175.008443
38895	4211540	5.191185	-0.869619	0.721558	0.254178	-0.146107	-0.061248	-62.625629	-75.749694	-174.947639
38896	4211565	5.192437	-0.803952	0.809478	0.262807	-0.166722	-0.077721	-62.653109	-75.771297	-174.880467
38897	4211590	5.145469	-0.747907	0.902631	0.270793	-0.185567	-0.091544	-62.685477	-75.795889	-174.807079
38898	4211615	5.201864	-0.702736	0.959973	0.283343	-0.206243	-0.103921	-62.722819	-75.823152	-174.725627
38899	4211640	5.262323	-0.685122	1.023829	0.288975	-0.223418	-0.113757	-62.766322	-75.853032	-174.638087
38900	4211665	5.355770	-0.722504	1.084882	0.314705	-0.236554	-0.113347	-62.813177	-75.883703	-174.543302
38901	4211690	5.446422	-0.792844	1.136524	0.342034	-0.245032	-0.117625	-62.859615	-75.915454	-174.444923
38902	4211715	5.568694	-0.878422	1.204069	0.375901	-0.253575	-0.117534	-62.905254	-75.947485	-174.341241
38903	4211740	5.631768	-1.025661	1.234185	0.405482	-0.259450	-0.114883	-62.951332	-75.979788	-174.233893
38904	4211765	5.697596	-1.134503	1.275079	0.443623	-0.259385	-0.119975	-62.990933	-76.012718	-174.127604
38905	4211790	5.836322	-1.294277	1.331728	0.475675	-0.256781	-0.131139	-63.022030	-76.046887	-174.025364
38906	4211815	5.931038	-1.469044	1.356456	0.514729	-0.259061	-0.130887	-63.048419	-76.080911	-173.921046
38907	4211840	6.020312	-1.592922	1.377367	0.561531	-0.254992	-0.128868	-63.067519	-76.114652	-173.818526
38908	4211865	6.142701	-1.760619	1.354305	0.603214	-0.239228	-0.127976	-63.073005	-76.147251	-173.723892
38909	4211890	6.256898	-1.878822	1.323416	0.649028	-0.231372	-0.129451	-63.067692	-76.179528	-173.633636
38910	4211915	6.370996	-2.009504	1.332363	0.691769	-0.221096	-0.127915	-63.050811	-76.210697	-173.547807
38911	4211940	6.441105	-2.111288	1.321455	0.734684	-0.204445	-0.122954	-63.021259	-76.240409	-173.469898
38912	4211965	6.480835	-2.199440	1.354379	0.764939	-0.187667	-0.115560	-62.980675	-76.268098	-173.398895
38913	4211990	6.531559	-2.283506	1.397965	0.786996	-0.180030	-0.108540	-62.934869	-76.294406	-173.330024
38914	4212015	6.575463	-2.356489	1.421665	0.808750	-0.170496	-0.102790	-62.881823	-76.319118	-173.264218
38915	4212040	6.608114	-2.488878	1.504942	0.815536	-0.160600	-0.095448	-62.825319	-76.342518	-173.202163
38916	4212065	6.624601	-2.550643	1.484822	0.802902	-0.157566	-0.090915	-62.770268	-76.365156	-173.140483
38917	4212090	6.630085	-2.575396	1.479441	0.771475	-0.138783	-0.082740	-62.712069	-76.385535	-173.086678
38918	4212115	6.603980	-2.573945	1.455503	0.734198	-0.112426	-0.073473	-62.647134	-76.402753	-173.044134
38919	4212140	6.492367	-2.539706	1.502074	0.674753	-0.071512	-0.063638	-62.572549	-76.416298	-173.021448
38920	4212165	6.331087	-2.446619	1.615241	0.610469	-0.025567	-0.059371	-62.484105	-76.426273	-173.022495
38921	4212190	6.278758	-2.284654	1.702136	0.543031	0.018850	-0.047055	-62.385269	-76.431740	-173.044168
38922	4212215	6.201790	-2.112896	1.749143	0.479385	0.064604	-0.034657	-62.274143	-76.432310	-173.086697
38923	4212240	6.143917	-1.915337	1.876003	0.434221	0.110675	-0.009292	-62.153043	-76.426840	-173.147306
38924	4212265	6.124683	-1.754690	1.953552	0.382115	0.151084	0.021406	-62.026841	-76.414744	-173.220846
38925	4212290	6.172991	-1.607727	2.000569	0.335196	0.185135	0.042778	-61.895701	-76.397615	-173.306386
38926	4212315	6.212991	-1.490998	2.039497	0.293423	0.211796	0.062412	-61.761669	-76.375881	-173.399846
38927	4212340	6.280420	-1.404612	2.114237	0.248329	0.241369	0.079614	-61.624657	-76.350192	-173.504247
38928	4212365	6.371383	-1.324940	2.138444	0.191721	0.259782	0.086007	-61.488466	-76.322384	-173.616158
38929	4212390	6.540674	-1.231837	2.237157	0.142223	0.274080	0.087202	-61.352825	-76.293383	-173.734815
38930	4212415	6.626034	-1.139921	2.299964	0.100282	0.274821	0.081609	-61.221002	-76.264688	-173.854436
38931	4212440	6.644076	-0.972297	2.345696	0.083385	0.278813	0.073414	-61.088516	-76.236960	-173.978549
38932	4212465	6.631881	-0.800468	2.363545	0.074387	0.277257	0.075501	-60.959218	-76.209010	-174.100724
38933	4212490	6.599118	-0.644942	2.334831	0.082938	0.275604	0.072904	-60.829305	-76.181436	-174.222284
38934	4212515	6.606368	-0.529100	2.255491	0.098720	0.277592	0.074294	-60.696230	-76.153200	-174.343356
38935	4212540	6.610837	-0.438017	2.170756	0.123584	0.279944	0.079504	-60.561198	-76.124362	-174.464221
38936	4212565	6.631789	-0.353845	2.097994	0.147580	0.296925	0.079234	-60.414638	-76.094289	-174.593437
38937	4212590	6.684377	-0.331572	2.013059	0.173803	0.311825	0.089078	-60.260268	-76.061853	-174.726847
38938	4212615	6.824843	-0.375489	1.989093	0.189835	0.335647	0.095472	-60.093397	-76.026555	-174.869231
38939	4212640	6.976277	-0.459308	1.962306	0.214036	0.356567	0.097051	-59.914713	-75.989739	-175.021799
38940	4212665	7.104439	-0.456434	1.927862	0.246766	0.373153	0.096345	-59.723804	-75.951698	-175.182160
38941	4212690	7.278213	-0.447835	1.829652	0.295384	0.389098	0.088732	-59.516837	-75.913308	-175.351924
38942	4212715	7.457462	-0.466778	1.730058	0.358993	0.410746	0.078879	-59.287499	-75.874118	-175.533714
38945	4212740	7.664266	-0.513086	1.610445	0.427666	0.436010	0.079471	-59.038172	-75.833094	-175.727681
38946	4212765	7.913858	-0.603212	1.424264	0.497589	0.462048	0.072527	-58.765481	-75.790779	-175.935451
38947	4212790	8.225315	-0.729162	1.260625	0.558631	0.495224	0.062844	-58.466673	-75.746921	-176.161185
38948	4212815	8.650947	-0.833429	1.163527	0.613168	0.533147	0.053048	-58.139827	-75.700822	-176.406085
38949	4212840	9.062809	-0.907486	1.089109	0.685764	0.562213	0.042515	-57.788326	-75.653714	-176.667499
38950	4212865	9.482864	-0.973392	1.041343	0.759395	0.589457	0.030717	-57.411933	-75.605531	-176.943777
38951	4212890	9.835427	-1.064022	0.982732	0.845497	0.613895	0.024474	-57.012101	-75.555742	-177.231582
38952	4212915	10.174269	-1.149070	0.909585	0.931605	0.634766	0.027369	-56.592734	-75.503183	-177.525105
38953	4212940	10.517323	-1.194227	0.825918	1.011901	0.657149	0.024390	-56.154065	-75.448928	-177.828543
38954	4212965	10.843740	-1.294434	0.754032	1.085969	0.673071	0.033033	-55.702990	-75.391781	-178.133914
38955	4212990	11.171712	-1.368293	0.627729	1.163658	0.694186	0.050712	-55.239750	-75.330222	-178.440439
38956	4213015	11.660524	-1.542777	0.555680	1.235603	0.710218	0.065376	-54.766130	-75.264724	-178.745342
38957	4213040	12.099916	-1.686819	0.441149	1.297376	0.726526	0.076789	-54.284285	-75.196164	-179.051483
38958	4213065	12.575036	-1.841970	0.350605	1.340398	0.744369	0.082278	-53.793877	-75.124807	-179.360205
38959	4213090	12.963517	-1.980420	0.216201	1.371432	0.766227	0.074086	-53.290794	-75.051851	-179.677547
38960	4213115	13.385245	-2.080159	0.031459	1.394203	0.791878	0.062215	-52.772985	-74.977055	179.994867
38961	4213140	13.736857	-2.122078	-0.174425	1.387926	0.828526	0.052194	-52.242278	-74.899692	179.651141
38962	4213165	14.114756	-2.099354	-0.382618	1.364380	0.866868	0.038175	-51.698884	-74.819694	179.290652
38963	4213190	14.427913	-2.047876	-0.566949	1.323710	0.920614	0.034848	-51.142924	-74.734367	178.910961
38964	4213215	14.776653	-2.054334	-0.697021	1.263287	0.967271	0.026043	-50.578422	-74.644577	178.514909
38965	4213240	15.013840	-2.047067	-0.820369	1.187370	1.022219	0.010753	-50.003999	-74.550658	178.095485
38966	4213265	15.191694	-1.904086	-0.818427	1.110908	1.071408	0.007644	-49.426180	-74.451408	177.660975
38967	4213290	15.231889	-1.773500	-0.828671	1.025463	1.111052	0.015764	-48.854410	-74.346404	177.219823
38968	4213315	15.311517	-1.764237	-0.732944	0.931477	1.142045	0.021659	-48.292494	-74.236422	176.776198
38969	4213340	15.319598	-1.783748	-0.663940	0.830801	1.155963	0.039767	-47.753352	-74.122265	176.339502
38970	4213365	15.261670	-1.735883	-0.600077	0.744753	1.157901	0.058295	-47.239005	-74.004875	175.915523
38971	4213390	15.287187	-1.823357	-0.377260	0.677923	1.148899	0.073826	-46.749533	-73.885721	175.507216
38972	4213415	15.364988	-1.947952	-0.173104	0.620853	1.109939	0.097008	-46.296060	-73.766851	175.129036
38973	4213440	15.430404	-2.167077	-0.032917	0.594066	1.055831	0.115049	-45.877984	-73.650918	174.782108
38974	4213465	15.519297	-2.410991	0.084527	0.605174	0.999947	0.125071	-45.486411	-73.538864	174.464265
38975	4213490	15.720827	-2.688198	0.290949	0.653382	0.927517	0.131285	-45.119554	-73.432884	174.179225
38976	4213515	15.887987	-3.016059	0.444058	0.739834	0.844160	0.116620	-44.767202	-73.336124	173.923370
38977	4213540	16.096582	-3.288956	0.574776	0.863783	0.752060	0.107272	-44.428545	-73.249466	173.698952
38978	4213565	16.310681	-3.653711	0.664068	0.993619	0.657155	0.082114	-44.096965	-73.174682	173.501256
38979	4213590	16.617418	-3.965775	0.618099	1.143496	0.560618	0.057116	-43.769311	-73.112014	173.330023
38980	4213615	16.681750	-4.372578	0.549041	1.289157	0.486683	0.024900	-43.435277	-73.059713	173.174971
38981	4213640	16.774655	-4.801868	0.600847	1.402957	0.424187	-0.014432	-43.093385	-73.017723	173.027611
38982	4213665	16.954136	-5.178009	0.761746	1.482503	0.364015	-0.067483	-42.742246	-72.986962	172.882470
38983	4213690	17.049831	-5.361580	0.925954	1.518040	0.294364	-0.112379	-42.393425	-72.967639	172.745056
38984	4213715	16.917322	-5.414267	1.002783	1.519684	0.226794	-0.128366	-42.060319	-72.956591	172.625146
38985	4213740	16.124801	-5.629141	1.154396	1.473393	0.168912	-0.133099	-41.750758	-72.952161	172.522090
38986	4213765	15.672605	-5.492674	1.412198	1.402112	0.086866	-0.134841	-41.476330	-72.956529	172.445102
38987	4213790	15.336490	-5.561321	1.390535	1.319820	-0.012420	-0.092013	-41.259287	-72.967419	172.415807
38988	4213815	15.102252	-5.689080	1.354117	1.213542	-0.094137	-0.016527	-41.108911	-72.979779	172.440881
38989	4213840	14.919441	-5.759848	1.157244	1.086007	-0.137593	0.065807	-41.019314	-72.989292	172.509847
38990	4213865	14.935468	-6.131115	1.150685	0.943536	-0.156167	0.149277	-40.985322	-72.992990	172.615617
38991	4213890	14.957912	-6.588182	1.300504	0.776188	-0.174005	0.180392	-40.991798	-72.995701	172.738636
38992	4213915	14.986038	-6.888480	1.460350	0.589556	-0.207293	0.163090	-41.029089	-73.003428	172.866165
38993	4213940	14.866086	-6.858431	1.536143	0.396723	-0.241056	0.119841	-41.089297	-73.019034	172.988523
38994	4213965	14.589414	-6.478114	1.680744	0.217389	-0.269380	0.099023	-41.176776	-73.039611	173.112524
38995	4213990	14.276690	-6.152998	1.908857	0.045870	-0.299966	0.113291	-41.303628	-73.062068	173.251989
38996	4214015	14.009343	-5.845873	2.150220	-0.111654	-0.330538	0.145756	-41.474398	-73.084429	173.413710
38997	4214040	13.738243	-5.499689	2.277457	-0.240842	-0.372940	0.188924	-41.692629	-73.107269	173.605724
38998	4214065	13.531765	-5.236032	2.408414	-0.347297	-0.409111	0.219388	-41.948788	-73.130830	173.821414
38999	4214090	13.413447	-5.054651	2.482101	-0.425011	-0.454077	0.225663	-42.233225	-73.158272	174.054992
39000	4214115	13.362941	-4.794618	2.451062	-0.489552	-0.486437	0.225179	-42.537975	-73.188630	174.299867
39001	4214140	13.345527	-4.541319	2.405434	-0.553666	-0.513907	0.210358	-42.856573	-73.223139	174.549803
39002	4214165	13.351379	-4.325342	2.387577	-0.609224	-0.527087	0.181060	-43.178404	-73.261488	174.794755
39003	4214190	13.331076	-4.076420	2.396399	-0.642009	-0.533871	0.157779	-43.500380	-73.302434	175.034905
39004	4214215	13.270917	-3.775214	2.398696	-0.662692	-0.535515	0.121197	-43.814635	-73.346576	175.263507
39005	4214240	13.114255	-3.459058	2.444834	-0.665802	-0.536794	0.096807	-44.122726	-73.393126	175.485498
39006	4214265	12.953287	-3.165117	2.546653	-0.658475	-0.539608	0.081633	-44.426961	-73.441142	175.704507
39007	4214290	12.723746	-2.924308	2.519432	-0.643113	-0.557460	0.075221	-44.734358	-73.491290	175.929053
39008	4214315	12.477874	-2.718787	2.384551	-0.613235	-0.549723	0.066555	-45.033493	-73.540982	176.149013
39009	4214340	12.256865	-2.510469	2.207102	-0.577338	-0.524460	0.066040	-45.320078	-73.588063	176.361570
39010	4214365	12.040877	-2.352212	2.200930	-0.544050	-0.479592	0.058955	-45.585264	-73.631068	176.556742
39011	4214390	11.882443	-2.208151	2.306269	-0.512555	-0.418203	0.044492	-45.820682	-73.669174	176.725553
39012	4214415	11.743217	-1.991500	2.490209	-0.485495	-0.364906	0.031391	-46.029945	-73.702929	176.870754
39013	4214440	11.690761	-1.847629	2.627514	-0.466997	-0.324072	0.022048	-46.219604	-73.733657	176.998634
39014	4214465	11.661550	-1.725934	2.817868	-0.450802	-0.298545	0.003250	-46.392067	-73.763691	177.110998
39015	4214490	11.650331	-1.639757	2.953657	-0.441574	-0.277050	-0.024225	-46.546726	-73.794369	177.206179
39016	4214515	11.559385	-1.491611	3.065681	-0.419501	-0.263597	-0.049190	-46.685408	-73.826053	177.287715
39017	4214540	11.417336	-1.362938	3.228080	-0.390457	-0.259186	-0.074986	-46.810011	-73.860144	177.359196
39018	4214565	11.286356	-1.242372	3.361257	-0.340037	-0.266200	-0.105804	-46.919889	-73.898102	177.422855
39019	4214590	11.138966	-1.166963	3.418543	-0.277460	-0.281182	-0.116982	-47.022857	-73.938661	177.488639
39020	4214615	10.955979	-1.104925	3.386776	-0.208421	-0.295123	-0.122525	-47.119529	-73.980933	177.557991
39021	4214640	10.755188	-1.144259	3.249686	-0.143246	-0.304936	-0.129879	-47.208422	-74.025099	177.629104
39022	4214665	10.532392	-1.265886	3.047240	-0.083354	-0.297391	-0.124036	-47.288372	-74.067889	177.699822
39023	4214690	10.298611	-1.410743	2.822129	-0.042276	-0.274998	-0.119303	-47.356158	-74.107980	177.763995
39024	4214715	10.103259	-1.562766	2.655419	-0.038335	-0.243598	-0.130606	-47.408130	-74.146004	177.812247
39025	4214740	9.917445	-1.664112	2.546017	-0.032237	-0.209610	-0.131993	-47.446396	-74.181065	177.847206
39026	4214765	9.743949	-1.786132	2.465761	-0.049570	-0.177361	-0.140157	-47.472471	-74.213860	177.866910
39027	4214790	9.613191	-1.856018	2.395032	-0.066388	-0.152004	-0.147426	-47.489068	-74.244965	177.874258
39028	4214815	9.458935	-1.983616	2.329427	-0.083843	-0.133644	-0.160022	-47.496926	-74.275428	177.869914
39029	4214840	9.344794	-2.106840	2.192102	-0.091596	-0.121365	-0.168413	-47.498471	-74.305784	177.857873
39030	4214865	9.231909	-2.267289	2.079888	-0.092632	-0.110886	-0.184681	-47.490583	-74.336843	177.835882
39031	4214890	9.142405	-2.392139	2.002364	-0.087591	-0.096530	-0.206292	-47.469018	-74.368792	177.800442
39032	4214915	9.022762	-2.442649	1.897153	-0.089237	-0.087655	-0.223072	-47.438327	-74.401454	177.755264
39033	4214940	8.859243	-2.476336	1.734839	-0.078517	-0.074030	-0.237536	-47.395818	-74.434507	177.699442
39034	4214965	8.656994	-2.535000	1.624277	-0.047776	-0.057326	-0.253816	-47.336678	-74.467642	177.630935
39035	4214990	8.384452	-2.593746	1.530922	-0.025146	-0.045070	-0.272314	-47.262889	-74.501513	177.550600
39036	4215015	8.109195	-2.655164	1.420277	0.012638	-0.033543	-0.287332	-47.173630	-74.535615	177.459773
39037	4215040	7.814771	-2.643702	1.312519	0.045559	-0.015363	-0.298907	-47.068309	-74.569314	177.357259
39038	4215065	7.577999	-2.679196	1.252463	0.071758	0.001958	-0.316300	-46.946023	-74.603089	177.241055
39039	4215090	7.328613	-2.724610	1.266770	0.104523	0.014949	-0.320445	-46.812100	-74.635957	177.117670
39040	4215115	7.075411	-2.700939	1.209582	0.139095	0.017786	-0.327103	-46.669183	-74.668965	176.989967
39041	4215140	6.860852	-2.710076	1.077873	0.171988	0.020386	-0.320958	-46.522220	-74.701188	176.863119
39042	4215165	6.658667	-2.761791	0.954042	0.198042	0.034279	-0.317094	-46.367070	-74.731551	176.731671
39043	4215190	6.448075	-2.794524	0.884711	0.220741	0.049877	-0.314908	-46.202973	-74.760047	176.594339
39044	4215215	6.227998	-2.810512	0.763628	0.244188	0.066288	-0.305676	-46.032119	-74.785657	176.453260
39047	4215240	6.064075	-2.872313	0.746056	0.261670	0.079939	-0.305939	-45.852960	-74.810018	176.306428
39048	4215265	5.945802	-2.851456	0.699532	0.290775	0.089043	-0.305913	-45.665677	-74.833344	176.155516
39049	4215290	5.762946	-2.845462	0.570587	0.303462	0.105442	-0.302409	-45.471172	-74.854535	175.999019
39050	4215315	5.553910	-2.858707	0.449517	0.298660	0.116992	-0.295804	-45.275036	-74.873553	175.839775
39051	4215340	5.449212	-2.916368	0.426646	0.295010	0.142533	-0.298780	-45.068213	-74.890346	175.669293
39052	4215365	5.366406	-2.975643	0.462272	0.294468	0.166641	-0.306991	-44.848930	-74.905361	175.485837
39053	4215390	5.239762	-2.960419	0.451621	0.301862	0.179292	-0.319073	-44.618895	-74.920120	175.292356
39054	4215415	5.008622	-2.826947	0.443978	0.307935	0.193743	-0.326024	-44.379665	-74.933693	175.089776
39055	4215440	4.796984	-2.651949	0.362073	0.307640	0.203316	-0.326681	-44.136173	-74.946329	174.883241
39056	4215465	4.616825	-2.511538	0.339816	0.292867	0.226641	-0.308867	-43.892646	-74.954560	174.674488
39057	4215490	4.543979	-2.463308	0.312023	0.274424	0.246587	-0.294437	-43.649742	-74.959069	174.463652
39058	4215515	4.548261	-2.483669	0.241531	0.252922	0.266771	-0.285992	-43.405814	-74.960215	174.247966
39059	4215540	4.501676	-2.425648	0.175297	0.231729	0.297710	-0.272676	-43.158628	-74.956789	174.026364
39060	4215565	4.345036	-2.308438	0.101182	0.193709	0.322329	-0.263742	-42.911551	-74.949663	173.799230
39061	4215590	4.217236	-2.231149	0.032264	0.156632	0.350283	-0.250231	-42.665212	-74.938030	173.567352
39062	4215615	4.136394	-2.130333	-0.073750	0.104459	0.387484	-0.231828	-42.420793	-74.920234	173.328994
39063	4215640	4.121411	-2.113606	-0.130842	0.043544	0.420111	-0.208224	-42.183116	-74.896643	173.089271
39064	4215665	4.135417	-2.099546	-0.219810	-0.029729	0.459066	-0.194050	-41.948463	-74.867293	172.841778
39065	4215690	4.196318	-2.088103	-0.335327	-0.112563	0.500852	-0.180078	-41.717416	-74.831885	172.585692
39066	4215715	4.195195	-2.078097	-0.432281	-0.194055	0.546625	-0.172317	-41.486499	-74.790375	172.316773
39067	4215740	4.239627	-2.025427	-0.543689	-0.269812	0.594820	-0.160769	-41.255402	-74.742500	172.037189
39068	4215765	4.340203	-2.030881	-0.559570	-0.355548	0.647459	-0.152601	-41.023317	-74.687881	171.743781
39069	4215790	4.470940	-2.033806	-0.521003	-0.421634	0.692348	-0.143634	-40.790815	-74.627247	171.440044
39070	4215815	4.564621	-1.944559	-0.484776	-0.484003	0.737143	-0.139783	-40.556047	-74.560875	171.123656
39071	4215840	4.641603	-1.898124	-0.402211	-0.531812	0.766458	-0.135100	-40.322232	-74.490715	170.801989
39072	4215865	4.707754	-1.786922	-0.355312	-0.572908	0.787419	-0.136012	-40.089503	-74.417998	170.475227
39073	4215890	4.765721	-1.664646	-0.326974	-0.593533	0.809732	-0.126866	-39.858609	-74.341635	170.147184
39074	4215915	4.772600	-1.543887	-0.262802	-0.618327	0.817775	-0.126174	-39.631961	-74.263795	169.818709
39075	4215940	4.774164	-1.398113	-0.250327	-0.649767	0.829810	-0.112031	-39.413875	-74.183169	169.495354
39076	4215965	4.785347	-1.262026	-0.237948	-0.664564	0.829989	-0.106245	-39.202848	-74.101669	169.177004
39077	4215990	4.793786	-1.109456	-0.218849	-0.692290	0.834050	-0.090599	-39.003293	-74.017994	168.866324
39078	4216015	4.858712	-0.980172	-0.223677	-0.719090	0.829365	-0.073926	-38.818499	-73.932887	168.565790
39079	4216040	4.868401	-0.926580	-0.212842	-0.736773	0.825064	-0.056171	-38.646626	-73.846580	168.277026
39080	4216065	4.945701	-0.867344	-0.245838	-0.763342	0.820598	-0.033781	-38.490989	-73.758545	168.001080
39081	4216090	5.054508	-0.852211	-0.253701	-0.791545	0.811819	-0.017177	-38.350743	-73.669819	167.736834
39082	4216115	5.163372	-0.861752	-0.273585	-0.814554	0.809276	-0.006182	-38.221298	-73.580073	167.479165
39083	4216140	5.410714	-1.209791	-0.257343	-0.814346	0.801742	-0.009920	-38.094384	-73.491500	167.225175
39084	4216165	5.457770	-1.048891	-0.259439	-0.803037	0.790812	-0.028975	-37.963888	-73.405680	166.969023
39085	4216190	5.416649	-0.904516	-0.252326	-0.788594	0.781262	-0.037164	-37.833021	-73.321494	166.714530
39086	4216215	5.343798	-0.771191	-0.230647	-0.761766	0.772047	-0.035049	-37.704102	-73.237857	166.464800
39087	4216240	5.250172	-0.677838	-0.181245	-0.722540	0.749271	-0.019687	-37.583412	-73.155448	166.230598
39088	4216265	5.219823	-0.603795	-0.119914	-0.669863	0.727673	-0.001682	-37.469833	-73.073783	166.011611
39089	4216290	5.163415	-0.504914	-0.079754	-0.592904	0.703964	0.018281	-37.361021	-72.992955	165.809040
39090	4216315	5.105453	-0.468026	-0.011894	-0.516036	0.676288	0.042385	-37.259814	-72.912946	165.624667
39091	4216340	5.067994	-0.512366	0.071621	-0.432797	0.639247	0.069085	-37.167910	-72.834891	165.463612
39092	4216365	5.051154	-0.633602	0.129709	-0.341715	0.605072	0.096034	-37.083565	-72.758337	165.324061
39093	4216390	5.023089	-0.929421	0.171206	-0.252463	0.564589	0.120497	-37.007621	-72.684243	165.206638
39094	4216415	5.074858	-1.243128	0.206064	-0.169310	0.520493	0.125955	-36.935092	-72.614555	165.104025
39095	4216440	5.151605	-1.487969	0.218580	-0.088356	0.475966	0.120030	-36.861323	-72.550563	165.013430
39096	4216465	5.202254	-1.669589	0.235287	-0.022966	0.435008	0.112143	-36.787067	-72.491910	164.932114
39097	4216490	5.280479	-1.830561	0.249420	0.043951	0.396247	0.101602	-36.710419	-72.438576	164.858317
39098	4216515	5.346429	-1.941955	0.245097	0.106795	0.352320	0.095792	-36.635338	-72.390638	164.794326
39099	4216540	5.388890	-2.079543	0.256609	0.174710	0.308570	0.093575	-36.561464	-72.348015	164.743054
39100	4216565	5.475325	-2.250204	0.288006	0.234658	0.271346	0.090337	-36.488085	-72.309932	164.701301
39101	4216590	5.561709	-2.455271	0.317916	0.292566	0.230530	0.094765	-36.419124	-72.276159	164.672885
39102	4216615	5.653670	-2.614948	0.350663	0.343002	0.190039	0.090699	-36.352803	-72.247276	164.653479
39103	4216640	5.767700	-2.775931	0.362143	0.385636	0.148033	0.095131	-36.292824	-72.222974	164.648484
39104	4216665	5.858259	-2.939742	0.404195	0.431626	0.110419	0.098768	-36.237584	-72.202705	164.655383
39105	4216690	5.940597	-3.056852	0.450344	0.466582	0.074780	0.104849	-36.188965	-72.186043	164.674497
39106	4216715	6.051819	-3.164415	0.515139	0.506596	0.035338	0.113642	-36.148597	-72.173091	164.706853
39107	4216740	6.178350	-3.227816	0.548245	0.531854	-0.006673	0.127903	-36.120350	-72.163912	164.757191
39108	4216765	6.355744	-3.296867	0.617199	0.550714	-0.036727	0.141472	-36.102154	-72.157072	164.820927
39109	4216790	6.522001	-3.377066	0.719295	0.552283	-0.078577	0.151934	-36.098452	-72.154196	164.900128
39110	4216815	6.662356	-3.396480	0.759168	0.535195	-0.125940	0.168784	-36.116118	-72.155265	164.997653
39111	4216840	6.837034	-3.392755	0.850955	0.495799	-0.170931	0.183560	-36.156114	-72.160386	165.114259
39112	4216865	6.959437	-3.394394	0.913468	0.442492	-0.217439	0.186741	-36.217179	-72.170584	165.244972
39113	4216890	7.029638	-3.360160	0.948160	0.375651	-0.261733	0.199386	-36.304165	-72.184774	165.392846
39114	4216915	7.101138	-3.283491	1.038785	0.301991	-0.308669	0.206268	-36.417274	-72.203603	165.555415
39115	4216940	7.213977	-3.194457	1.124182	0.221758	-0.352298	0.219007	-36.557885	-72.226373	165.736425
39116	4216965	7.380584	-3.097094	1.197696	0.143765	-0.398211	0.221165	-36.723147	-72.254087	165.931564
39117	4216990	7.518166	-2.987528	1.305779	0.068150	-0.442210	0.243394	-36.919625	-72.284751	166.148071
39118	4217015	7.726110	-2.802380	1.424729	-0.021130	-0.488617	0.257330	-37.147677	-72.319160	166.382553
39119	4217040	7.963179	-2.589412	1.472086	-0.110513	-0.532325	0.280218	-37.409094	-72.356373	166.640273
39120	4217065	8.204245	-2.450781	1.527162	-0.200005	-0.578900	0.307798	-37.707130	-72.396084	166.922909
39121	4217090	8.428847	-2.299670	1.568987	-0.275759	-0.618814	0.336944	-38.038837	-72.437274	167.229421
39122	4217115	8.668644	-2.140277	1.593614	-0.336286	-0.651461	0.357635	-38.397741	-72.479633	167.553575
39123	4217140	8.887543	-2.163739	1.609688	-0.366877	-0.669025	0.376077	-38.773722	-72.521794	167.892682
39124	4217165	9.172525	-2.143276	1.651113	-0.397460	-0.671569	0.365444	-39.152760	-72.564524	168.230323
39125	4217190	9.493530	-1.981257	1.697017	-0.429066	-0.647390	0.369445	-39.532438	-72.603540	168.563814
39126	4217215	9.524537	-1.726488	1.571656	-0.476463	-0.628199	0.389545	-39.922388	-72.637818	168.899182
39127	4217240	9.969718	-1.690192	1.439285	-0.539638	-0.590783	0.426918	-40.324306	-72.663965	169.239258
39128	4217265	10.378568	-1.613686	1.536746	-0.581266	-0.542885	0.452843	-40.727964	-72.681771	169.574869
39129	4217290	10.801130	-1.486413	1.711473	-0.604724	-0.490785	0.479034	-41.129047	-72.690778	169.904240
39130	4217315	11.277243	-1.470664	1.885852	-0.599326	-0.458549	0.492975	-41.525158	-72.694209	170.227532
39131	4217340	11.699427	-1.545774	2.094419	-0.577527	-0.426418	0.494222	-41.908381	-72.693536	170.542263
39132	4217365	12.113590	-1.621807	2.190065	-0.530087	-0.396992	0.500369	-42.277766	-72.688531	170.849622
39133	4217390	12.409301	-1.596385	2.355112	-0.482452	-0.373031	0.480814	-42.626060	-72.682311	171.142045
39134	4217415	12.737669	-1.612711	2.658122	-0.439121	-0.356051	0.464536	-42.957558	-72.675272	171.421784
39135	4217440	13.109049	-1.517426	2.907026	-0.410344	-0.359012	0.443912	-43.278288	-72.670188	171.696173
39136	4217465	13.343835	-1.454037	3.235505	-0.391246	-0.373989	0.415282	-43.591322	-72.669030	171.965370
39137	4217490	13.596607	-1.400214	3.528131	-0.357893	-0.405854	0.388174	-43.900705	-72.673418	172.235744
39138	4217515	13.874573	-1.323820	3.665405	-0.333518	-0.443667	0.359990	-44.209955	-72.683972	172.508143
39139	4217540	14.255750	-1.290026	3.801256	-0.325701	-0.473443	0.349051	-44.524048	-72.698327	172.788252
39140	4217565	14.572058	-1.271592	3.994132	-0.319141	-0.512518	0.336714	-44.846336	-72.717441	173.077902
39141	4217590	14.919999	-1.310838	4.170899	-0.321859	-0.556512	0.340110	-45.185162	-72.740169	173.384430
39142	4217615	15.178422	-1.332070	4.339752	-0.333296	-0.594996	0.319317	-45.532759	-72.768248	173.697058
39143	4217640	15.503334	-1.206201	4.462571	-0.342819	-0.640904	0.306544	-45.893567	-72.801749	174.023363
39144	4217665	15.722139	-1.224351	4.523758	-0.344789	-0.687699	0.303403	-46.270645	-72.839600	174.366340
39145	4217690	15.684909	-1.246307	4.522394	-0.367622	-0.711621	0.285599	-46.654965	-72.880987	174.713399
39146	4217715	15.581332	-1.353805	4.584404	-0.414343	-0.721589	0.266767	-47.045441	-72.924534	175.058668
39149	4217740	15.408972	-1.552995	4.551816	-0.471950	-0.722924	0.231148	-47.434927	-72.971355	175.395337
39150	4217765	15.221598	-1.687527	4.490192	-0.531316	-0.706300	0.190367	-47.816274	-73.020221	175.714516
39151	4217790	14.873099	-1.742459	4.479227	-0.572387	-0.672656	0.159794	-48.184116	-73.068506	176.013343
39152	4217815	14.657945	-1.819682	4.554618	-0.598429	-0.625333	0.137398	-48.534094	-73.114047	176.288535
39153	4217840	14.426012	-1.979724	4.694731	-0.609467	-0.579643	0.121845	-48.865954	-73.156554	176.544069
39154	4217865	14.290519	-2.228873	4.772254	-0.597879	-0.544174	0.101277	-49.178508	-73.197536	176.781113
39155	4217890	14.190983	-2.432521	4.807397	-0.573896	-0.510244	0.080945	-49.470402	-73.237197	177.000114
39156	4217915	14.197596	-2.657939	4.778792	-0.520139	-0.474323	0.051455	-49.733838	-73.276342	177.196543
39157	4217940	14.193169	-2.894398	4.758122	-0.451489	-0.434373	0.018902	-49.963667	-73.315208	177.368961
39158	4217965	14.168208	-3.074417	4.724271	-0.372013	-0.392832	0.002870	-50.162828	-73.351828	177.521215
39159	4217990	14.326580	-3.251513	4.618834	-0.291564	-0.356318	-0.020112	-50.330683	-73.387495	177.652795
39160	4218015	15.085891	-3.163266	4.460155	-0.213072	-0.319520	-0.003627	-50.479487	-73.417786	177.775459
39161	4218040	15.379683	-3.276494	4.190279	-0.133172	-0.259611	0.081031	-50.620727	-73.433264	177.902903
39162	4218065	14.365161	-3.915544	4.230007	-0.066999	-0.196381	0.080620	-50.729015	-73.442969	178.005850
39163	4218090	13.898441	-4.034637	4.116373	-0.010222	-0.157695	-0.014409	-50.785878	-73.459668	178.063626
39164	4218115	14.183289	-3.770934	3.780025	0.034881	-0.089301	-0.079894	-50.790977	-73.477337	178.073449
39165	4218140	14.397390	-3.520286	3.660076	0.063916	-0.012700	-0.088723	-50.760394	-73.489144	178.051083
39166	4218165	14.881301	-3.193175	3.634729	0.083438	0.040841	-0.056866	-50.716687	-73.492560	178.017945
39167	4218190	15.349944	-3.151541	3.486283	0.077328	0.071783	0.012562	-50.683530	-73.485467	177.994899
39168	4218215	15.555144	-3.500051	3.299149	0.058825	0.086182	0.071359	-50.665809	-73.470454	177.984548
39169	4218240	16.265973	-3.790669	3.058072	0.028035	0.079174	0.076421	-50.656537	-73.455610	177.979048
39170	4218265	17.591379	-3.367132	2.459869	-0.022259	0.080028	0.141890	-50.674150	-73.433436	177.994079
39171	4218290	16.561559	-4.314925	2.441524	-0.105572	0.128165	0.174569	-50.695691	-73.403271	178.000760
39172	4218315	16.034088	-4.484292	2.917189	-0.221197	0.118394	0.022317	-50.691220	-73.390774	177.962371
39173	4218340	15.700420	-3.640554	2.954372	-0.304168	0.054519	-0.014524	-50.711026	-73.388249	177.937556
39174	4218365	14.274420	-3.720535	3.205747	-0.372757	-0.022422	-0.025922	-50.765792	-73.393968	177.938972
39175	4218390	14.214577	-3.058931	2.676739	-0.397761	-0.083403	-0.025503	-50.846998	-73.405160	177.964240
39176	4218415	14.558584	-2.806105	2.347350	-0.371125	0.007951	0.108892	-50.931261	-73.393061	177.996058
39177	4218440	14.629679	-3.396213	2.800999	-0.290559	0.101794	0.212623	-51.000114	-73.361031	178.024462
39178	4218465	14.687586	-3.804226	3.117101	-0.207274	0.144130	0.222954	-51.044228	-73.324028	178.039501
39179	4218490	14.821938	-3.777698	3.384289	-0.132166	0.166026	0.168847	-51.053112	-73.291080	178.028995
39180	4218515	14.807935	-3.456991	3.686770	-0.083782	0.154604	0.105348	-51.040420	-73.266144	178.002600
39181	4218540	14.520450	-2.954225	3.844979	-0.041196	0.105730	0.036304	-51.018968	-73.253386	177.974019
39182	4218565	14.353480	-2.347522	3.765853	-0.012510	0.050315	-0.006324	-51.001169	-73.250366	177.953544
39183	4218590	14.285611	-1.843794	3.646705	0.010154	0.015888	-0.004977	-50.993266	-73.250298	177.946793
39184	4218615	14.100061	-1.570199	3.667319	0.022507	-0.011650	0.018929	-51.001046	-73.249967	177.957769
39185	4218640	13.874143	-1.523543	3.715260	0.013888	-0.041988	0.046036	-51.029292	-73.249435	177.989327
39186	4218665	13.638609	-1.552383	3.718926	-0.015017	-0.074095	0.061175	-51.078091	-73.250101	178.038025
39187	4218690	13.434959	-1.593239	3.627025	-0.054692	-0.108962	0.050601	-51.142342	-73.255068	178.096924
39188	4218715	13.257553	-1.631236	3.504572	-0.099662	-0.135373	0.056346	-51.224669	-73.261663	178.167582
39189	4218740	12.990528	-1.732500	3.385831	-0.147951	-0.153099	0.049238	-51.318370	-73.270689	178.243281
39190	4218765	12.815835	-1.721170	3.299430	-0.178228	-0.166003	0.040561	-51.418729	-73.281804	178.321399
39191	4218790	12.592912	-1.698878	3.244902	-0.205937	-0.178167	0.034502	-51.525920	-73.294643	178.402501
39192	4218815	12.354796	-1.686304	3.198280	-0.224100	-0.185083	0.029533	-51.637027	-73.308532	178.484669
39193	4218840	12.240763	-1.672125	3.096011	-0.232066	-0.192131	0.024648	-51.750581	-73.323628	178.568495
39194	4218865	12.097731	-1.626468	3.038961	-0.247191	-0.183132	0.018677	-51.861327	-73.338552	178.647121
39195	4218890	11.916160	-1.510896	3.012681	-0.262329	-0.165245	0.020564	-51.968218	-73.351639	178.719455
39196	4218915	11.613229	-1.335108	3.102113	-0.269635	-0.150870	0.027712	-52.073000	-73.362541	178.788273
39197	4218940	11.260662	-1.228056	3.173970	-0.291495	-0.149110	0.045478	-52.185555	-73.371315	178.862150
39198	4218965	10.907922	-1.248899	3.237428	-0.309579	-0.157671	0.074385	-52.312533	-73.377521	178.948373
39199	4218990	10.599094	-1.345409	3.320637	-0.340994	-0.174348	0.094314	-52.456267	-73.382866	179.047383
39200	4219015	10.309556	-1.509187	3.365088	-0.370827	-0.198722	0.113179	-52.619152	-73.388043	179.161794
39201	4219040	10.087630	-1.652127	3.360505	-0.406016	-0.220403	0.115637	-52.796167	-73.394795	179.285809
39202	4219065	9.831331	-1.738716	3.365416	-0.445369	-0.232647	0.111833	-52.982534	-73.402928	179.413696
39203	4219090	9.642391	-1.824160	3.423497	-0.473650	-0.239651	0.108242	-53.174763	-73.411954	179.543468
39204	4219115	9.434323	-1.855803	3.448542	-0.480014	-0.239627	0.101964	-53.366243	-73.421503	179.671457
39205	4219140	9.245551	-1.873743	3.476295	-0.480777	-0.227328	0.103715	-53.553774	-73.429752	179.795249
39206	4219165	9.049891	-1.917806	3.490646	-0.468001	-0.208554	0.099412	-53.731113	-73.436790	179.910312
39207	4219190	8.840382	-1.945447	3.544934	-0.446190	-0.189325	0.100316	-53.898222	-73.442000	-179.982041
39208	4219215	8.601962	-2.008778	3.577798	-0.418510	-0.165720	0.103612	-54.053132	-73.444680	-179.882956
39209	4219240	8.367571	-2.090109	3.634539	-0.391267	-0.145397	0.101322	-54.195638	-73.445919	-179.792772
39210	4219265	8.114194	-2.129839	3.606334	-0.363041	-0.117876	0.101638	-54.323435	-73.444758	-179.713716
39211	4219290	7.932400	-2.151769	3.599524	-0.337267	-0.085369	0.101104	-54.434640	-73.440900	-179.648117
39212	4219315	7.743663	-2.236914	3.573869	-0.318393	-0.059158	0.094371	-54.530870	-73.435537	-179.595219
39213	4219340	7.553741	-2.261364	3.508600	-0.295796	-0.027449	0.079663	-54.607341	-73.429311	-179.559657
39214	4219365	7.417579	-2.261073	3.430128	-0.267340	0.012036	0.071852	-54.662024	-73.420711	-179.542573
39215	4219390	7.278629	-2.229271	3.394256	-0.250071	0.048819	0.061928	-54.697007	-73.410222	-179.543464
39216	4219415	7.139755	-2.158904	3.346594	-0.230348	0.084464	0.060965	-54.714814	-73.396816	-179.559173
39217	4219440	6.948596	-2.082998	3.282956	-0.212583	0.116976	0.056125	-54.716083	-73.381366	-179.589642
39218	4219465	6.709190	-1.998915	3.243208	-0.205204	0.145668	0.051637	-54.703853	-73.364065	-179.633097
39219	4219490	6.580162	-1.887103	3.138560	-0.196590	0.178844	0.051421	-54.677429	-73.344039	-179.690086
39220	4219515	6.539307	-1.839742	2.975261	-0.193310	0.203072	0.058976	-54.643179	-73.321033	-179.754548
39221	4219540	6.521961	-1.756550	2.805441	-0.190489	0.238359	0.057822	-54.594715	-73.295302	-179.833647
39222	4219565	6.454790	-1.672357	2.720675	-0.176209	0.275673	0.064628	-54.531805	-73.265657	-179.925705
