PacketCounter	SampleTimeFine	Acc_X	Acc_Y	Acc_Z	Gyr_X	Gyr_Y	Gyr_Z	Roll	Pitch	Yaw
60958	3146015	9.559084	-0.755845	1.584648	0.050730	-0.065492	-0.009152	-24.646260	-79.730830	162.637848
60959	3146040	9.553664	-0.709032	1.578147	0.053038	-0.062293	-0.008756	-24.652266	-79.740304	162.651665
60960	3146065	9.560603	-0.700746	1.560901	0.053412	-0.064430	-0.006403	-24.660638	-79.749916	162.667939
60961	3146090	9.544149	-0.701974	1.529015	0.055940	-0.065534	-0.003211	-24.671334	-79.759481	162.686944
60962	3146115	9.512478	-0.728040	1.510320	0.063749	-0.062700	-0.001000	-24.681516	-79.768585	162.706588
60963	3146140	9.541441	-0.743086	1.486331	0.067508	-0.061764	-0.006361	-24.687085	-79.777846	162.722065
60964	3146165	9.533143	-0.769199	1.483594	0.069344	-0.059207	-0.010154	-24.688821	-79.787001	162.733914
60965	3146190	9.541506	-0.741657	1.462396	0.068788	-0.058639	-0.006732	-24.692934	-79.795878	162.748097
60966	3146215	9.567640	-0.723840	1.485091	0.062561	-0.059587	-0.006653	-24.698251	-79.804914	162.762619
60967	3146240	9.556591	-0.719774	1.501039	0.052853	-0.069550	-0.006656	-24.708372	-79.815205	162.780586
60968	3146265	9.588321	-0.725182	1.477101	0.052537	-0.072916	-0.005196	-24.720749	-79.825846	162.800799
60969	3146290	9.584176	-0.716963	1.487779	0.049084	-0.071414	-0.003578	-24.734327	-79.836194	162.821729
60970	3146315	9.608978	-0.685383	1.497225	0.040357	-0.080000	-0.005540	-24.750565	-79.847818	162.844110
60971	3146340	9.644778	-0.677198	1.507869	0.032501	-0.085120	-0.002359	-24.772081	-79.859873	162.870689
60972	3146365	9.631047	-0.666161	1.499937	0.022437	-0.084366	0.000159	-24.796675	-79.871677	162.898931
60973	3146390	9.608990	-0.667533	1.505208	0.019208	-0.090672	-0.002716	-24.821824	-79.884472	162.927264
60974	3146415	9.589714	-0.655206	1.510584	0.017579	-0.089762	0.002471	-24.850674	-79.896876	162.959139
60975	3146440	9.610393	-0.646891	1.507967	0.008382	-0.091447	0.003922	-24.882623	-79.909367	162.992802
60976	3146465	9.648956	-0.659282	1.505273	0.002508	-0.092645	0.000450	-24.913364	-79.922219	163.024383
60977	3146490	9.657259	-0.612579	1.510764	-0.003678	-0.092490	0.001226	-24.945587	-79.935002	163.056567
60978	3146515	9.676561	-0.597439	1.512138	-0.009279	-0.094675	0.004299	-24.981612	-79.947921	163.091819
60979	3146540	9.672426	-0.576849	1.525534	-0.022651	-0.089802	0.007865	-25.020670	-79.959946	163.128183
60980	3146565	9.697215	-0.593326	1.517510	-0.027128	-0.091276	0.003393	-25.057683	-79.972428	163.161818
60981	3146590	9.712359	-0.571389	1.530851	-0.035307	-0.088204	0.006816	-25.097415	-79.984301	163.197022
60982	3146615	9.705395	-0.596176	1.545416	-0.039876	-0.084123	0.009756	-25.138562	-79.995504	163.233026
60983	3146640	9.690174	-0.601778	1.573235	-0.042504	-0.083426	0.009102	-25.179531	-80.006609	163.268436
60984	3146665	9.701161	-0.638889	1.562496	-0.038320	-0.075462	0.007479	-25.216029	-80.016777	163.299916
60985	3146690	9.712215	-0.616893	1.566559	-0.040729	-0.076492	0.006890	-25.252866	-80.027110	163.331387
60986	3146715	9.709332	-0.670590	1.579690	-0.033419	-0.074820	0.007962	-25.288849	-80.037201	163.363087
60987	3146740	9.721715	-0.682944	1.579650	-0.031185	-0.067338	0.008164	-25.322203	-80.046265	163.392408
60988	3146765	9.684572	-0.665052	1.573089	-0.025301	-0.062008	0.006300	-25.351529	-80.054749	163.418495
60989	3146790	9.672267	-0.631991	1.559886	-0.022541	-0.057004	0.003527	-25.376705	-80.062754	163.440769
60990	3146815	9.690121	-0.637527	1.575812	-0.030358	-0.054374	0.003527	-25.402029	-80.070461	163.462096
60991	3146840	9.698320	-0.665091	1.579696	-0.026131	-0.054243	-0.000434	-25.423896	-80.078349	163.480487
60992	3146865	9.709386	-0.658154	1.570447	-0.027983	-0.045136	0.001319	-25.444150	-80.084950	163.496971
60993	3146890	9.705213	-0.682944	1.570365	-0.032659	-0.044626	0.000584	-25.464374	-80.091529	163.512746
60994	3146915	9.694147	-0.693978	1.582258	-0.031675	-0.037158	-0.004108	-25.478281	-80.097474	163.522293
60995	3146940	9.691330	-0.707803	1.599491	-0.031196	-0.037019	0.000587	-25.495653	-80.103068	163.535383
60996	3146965	9.684344	-0.750475	1.616608	-0.026917	-0.038345	-0.001600	-25.511276	-80.108967	163.547321
60997	3146990	9.648434	-0.813725	1.615061	-0.025102	-0.041261	-0.003992	-25.525914	-80.115391	163.558522
60998	3147015	9.626512	-0.797091	1.581902	-0.021353	-0.039752	-0.009105	-25.535613	-80.121978	163.565299
60999	3147040	9.630649	-0.813552	1.571201	-0.019744	-0.033629	-0.009985	-25.542355	-80.127784	163.569264
61000	3147065	9.620989	-0.852019	1.555115	-0.024579	-0.036515	-0.006914	-25.553102	-80.133774	163.576591
61001	3147090	9.615513	-0.864299	1.532495	-0.025031	-0.029969	-0.009331	-25.559801	-80.139067	163.579744
61002	3147115	9.604533	-0.849171	1.528570	-0.024381	-0.030345	-0.008693	-25.566935	-80.144411	163.583472
61003	3147140	9.563208	-0.866999	1.521828	-0.026940	-0.028312	-0.005671	-25.576051	-80.149264	163.588800
61004	3147165	9.545220	-0.893197	1.540319	-0.028591	-0.024988	-0.005816	-25.584119	-80.153696	163.592824
61005	3147190	9.543888	-0.889024	1.523072	-0.027411	-0.030349	-0.005105	-25.594464	-80.158776	163.599332
61006	3147215	9.549427	-0.901320	1.503114	-0.021087	-0.035155	-0.005114	-25.605541	-80.164519	163.607533
61007	3147240	9.563273	-0.894365	1.481843	-0.025208	-0.036030	-0.004132	-25.618344	-80.170273	163.616855
61008	3147265	9.543967	-0.917699	1.476463	-0.024720	-0.039399	0.001331	-25.636370	-80.176122	163.631549
61009	3147290	9.560431	-0.937035	1.488361	-0.013460	-0.043818	-0.002383	-25.651616	-80.182772	163.645056
61010	3147315	9.577103	-0.910731	1.451239	-0.023478	-0.052813	-0.005877	-25.668859	-80.190841	163.659158
61011	3147340	9.564728	-0.907958	1.439293	-0.025064	-0.060277	-0.004742	-25.689962	-80.199760	163.676922
61012	3147365	9.560592	-0.912089	1.437954	-0.022921	-0.065301	-0.002883	-25.713992	-80.209212	163.697968
61013	3147390	9.534513	-0.922944	1.399338	-0.021584	-0.072971	-0.002486	-25.740938	-80.219626	163.722167
61014	3147415	9.536020	-0.907612	1.352923	-0.023666	-0.074388	-0.002824	-25.768430	-80.230284	163.746627
61015	3147440	9.537466	-0.892425	1.334382	-0.027239	-0.075896	-0.005764	-25.794899	-80.241276	163.769518
61016	3147465	9.560948	-0.885468	1.314479	-0.026850	-0.079790	-0.005250	-25.823168	-80.252737	163.794291
61017	3147490	9.548604	-0.873030	1.298563	-0.022897	-0.085410	-0.008576	-25.850479	-80.265128	163.818667
61018	3147515	9.503195	-0.844138	1.298657	-0.019373	-0.087835	-0.003727	-25.881823	-80.277567	163.847641
61019	3147540	9.548709	-0.839937	1.274735	-0.016846	-0.089866	-0.002751	-25.914420	-80.290163	163.878256
61020	3147565	9.577696	-0.846718	1.245531	-0.020343	-0.091556	-0.004806	-25.946670	-80.303103	163.908011
61021	3147590	9.581924	-0.783438	1.243108	-0.018069	-0.088173	-0.000796	-25.980459	-80.315352	163.939656
61022	3147615	9.551591	-0.765634	1.272342	-0.015204	-0.088373	-0.009020	-26.007729	-80.328183	163.965086
61023	3147640	9.562597	-0.754676	1.277723	-0.021745	-0.091828	-0.006087	-26.039554	-80.341230	163.994202
61024	3147665	9.548850	-0.745033	1.275080	-0.024022	-0.090015	-0.000335	-26.075469	-80.353679	164.027135
61025	3147690	9.570958	-0.721591	1.261867	-0.023584	-0.088286	-0.012636	-26.101448	-80.366677	164.050051
61027	3147715	9.609495	-0.720280	1.269902	-0.031050	-0.084923	-0.007114	-26.131451	-80.378936	164.075940
61029	3147740	9.632896	-0.724421	1.272523	-0.036938	-0.087872	-0.008045	-26.162811	-80.391587	164.102373
61030	3147765	9.599908	-0.680404	1.270015	-0.050986	-0.082752	-0.008796	-26.193775	-80.403625	164.126362
61031	3147790	9.646714	-0.696890	1.268669	-0.053237	-0.083518	-0.005132	-26.228206	-80.415528	164.153540
61032	3147815	9.610847	-0.720314	1.281819	-0.052293	-0.080165	-0.007159	-26.259728	-80.427169	164.177873
61033	3147840	9.678158	-0.726082	1.345641	-0.056694	-0.082877	-0.013593	-26.288111	-80.439521	164.198413
61034	3147865	9.712450	-0.724915	1.401455	-0.060885	-0.083768	-0.013877	-26.317277	-80.452003	164.219137
61035	3147890	9.708268	-0.712670	1.430720	-0.064506	-0.089101	-0.015806	-26.347571	-80.465291	164.240479
61036	3147915	9.672371	-0.685345	1.485243	-0.069903	-0.093964	-0.016288	-26.380139	-80.479275	164.263311
61037	3147940	9.647509	-0.675825	1.517171	-0.076562	-0.101845	-0.013734	-26.418745	-80.494062	164.291327
61038	3147965	9.610421	-0.637283	1.503969	-0.077158	-0.109974	-0.009930	-26.463560	-80.509646	164.325552
61039	3147990	9.617160	-0.663544	1.546424	-0.090505	-0.118737	-0.015420	-26.509559	-80.526699	164.359037
61040	3148015	9.619875	-0.669107	1.555723	-0.096790	-0.123116	-0.013879	-26.559422	-80.544253	164.395499
61041	3148040	9.621125	-0.729677	1.574131	-0.104693	-0.125226	-0.010450	-26.614081	-80.561809	164.435700
61042	3148065	9.604554	-0.761306	1.575334	-0.110522	-0.132145	-0.019626	-26.665353	-80.580834	164.471618
61043	3148090	9.608722	-0.758489	1.559394	-0.109969	-0.135747	-0.029068	-26.710825	-80.600923	164.501735
61044	3148115	9.608796	-0.735076	1.540920	-0.111884	-0.137611	-0.025719	-26.760003	-80.621073	164.535308
61045	3148140	9.610192	-0.756969	1.520875	-0.115764	-0.135526	-0.027592	-26.807694	-80.641029	164.566830
61046	3148165	9.600542	-0.763879	1.527501	-0.119281	-0.134946	-0.027622	-26.855808	-80.660910	164.598268
61047	3148190	9.605996	-0.784531	1.530134	-0.119662	-0.131239	-0.027755	-26.902578	-80.680321	164.628287
61048	3148215	9.618353	-0.792825	1.542068	-0.121468	-0.123334	-0.029425	-26.945282	-80.698869	164.653903
61049	3148240	9.623872	-0.801053	1.538019	-0.120738	-0.112487	-0.027016	-26.985637	-80.715830	164.677262
61050	3148265	9.630727	-0.821677	1.537950	-0.123306	-0.115170	-0.026843	-27.027681	-80.733120	164.701959
61051	3148290	9.622501	-0.851799	1.500675	-0.128773	-0.105777	-0.035839	-27.059830	-80.749796	164.715836
61052	3148315	9.572950	-0.831178	1.503354	-0.137070	-0.096726	-0.034265	-27.090807	-80.765254	164.727300
61053	3148340	9.584029	-0.787185	1.503487	-0.139025	-0.086950	-0.034921	-27.117737	-80.779466	164.734400
61054	3148365	9.577099	-0.794100	1.515449	-0.153954	-0.076772	-0.031434	-27.145499	-80.792152	164.740177
61055	3148390	9.582527	-0.845004	1.521915	-0.152180	-0.073217	-0.033072	-27.170327	-80.804492	164.743239
61056	3148415	9.545179	-0.917986	1.538935	-0.150229	-0.068715	-0.026973	-27.197851	-80.815899	164.749294
61057	3148440	9.542434	-0.945406	1.521547	-0.149128	-0.061056	-0.031918	-27.218297	-80.826614	164.748359
61058	3148465	9.525953	-0.968651	1.490918	-0.158456	-0.054206	-0.028001	-27.240413	-80.836200	164.747762
61059	3148490	9.527334	-0.942593	1.505614	-0.149275	-0.051700	-0.030661	-27.258113	-80.845640	164.744025
61060	3148515	9.492892	-0.934360	1.516227	-0.146152	-0.051117	-0.029621	-27.275924	-80.854978	164.740826
61061	3148540	9.496970	-0.926232	1.544161	-0.143541	-0.056167	-0.025411	-27.298811	-80.864643	164.743175
61062	3148565	9.484625	-0.931612	1.517574	-0.141971	-0.060640	-0.028947	-27.320529	-80.875110	164.744566
61063	3148590	9.468114	-0.916497	1.518938	-0.131311	-0.061028	-0.028291	-27.341423	-80.885583	164.746671
61064	3148615	9.487445	-0.947999	1.482966	-0.139254	-0.062810	-0.028417	-27.364078	-80.896328	164.749374
61065	3148640	9.499977	-0.939557	1.431198	-0.147916	-0.062050	-0.025566	-27.389994	-80.906752	164.754155
61066	3148665	9.447713	-0.907878	1.420658	-0.151825	-0.056610	-0.017422	-27.420738	-80.915946	164.763259
61067	3148690	9.399513	-0.920221	1.412627	-0.153758	-0.055739	-0.010717	-27.456776	-80.924586	164.777443
61068	3148715	9.406399	-0.949024	1.396534	-0.153102	-0.054243	-0.005132	-27.496566	-80.932702	164.795480
61069	3148740	9.432622	-0.951670	1.373989	-0.155215	-0.054082	0.001007	-27.541563	-80.940352	164.818525
61070	3148765	9.443698	-0.906315	1.371496	-0.154863	-0.049888	-0.001091	-27.583149	-80.947606	164.838166
61071	3148790	9.494726	-0.903501	1.350267	-0.156265	-0.043799	0.003530	-27.626130	-80.953778	164.859015
61072	3148815	9.494841	-0.875877	1.319796	-0.151528	-0.043771	0.005913	-27.670341	-80.959822	164.881747
61073	3148840	9.529410	-0.850929	1.276087	-0.152092	-0.033019	0.006217	-27.710440	-80.964443	164.900283
61074	3148865	9.569372	-0.841310	1.272142	-0.159913	-0.025292	0.008817	-27.750522	-80.967909	164.917668
61075	3148890	9.606624	-0.764358	1.291016	-0.154316	-0.014731	0.005557	-27.782788	-80.970253	164.927949
61076	3148915	9.656177	-0.734238	1.320348	-0.157249	-0.009970	0.006990	-27.814607	-80.971933	164.937297
61077	3148940	9.686456	-0.720546	1.332388	-0.157793	-0.007130	0.008571	-27.846595	-80.973110	164.946793
61078	3148965	9.709845	-0.721937	1.341690	-0.157739	-0.002912	0.008124	-27.876447	-80.973782	164.954134
61079	3148990	9.690546	-0.709607	1.357654	-0.168194	-0.003171	0.007090	-27.907084	-80.974556	164.960753
61080	3149015	9.672616	-0.697299	1.374964	-0.165866	-0.008868	-0.000754	-27.933527	-80.976612	164.963409
61081	3149040	9.631472	-0.661361	1.329875	-0.159939	-0.007796	-0.005275	-27.955090	-80.978800	164.962038
61082	3149065	9.630103	-0.609176	1.355306	-0.166108	-0.003059	-0.009641	-27.972058	-80.980682	164.955118
61083	3149090	9.598425	-0.589998	1.367307	-0.168873	-0.005019	-0.016448	-27.984827	-80.983270	164.943547
61084	3149115	9.576354	-0.620217	1.363212	-0.166093	-0.002693	-0.014591	-27.997670	-80.985475	164.932405
61085	3149140	9.616295	-0.616150	1.368545	-0.171937	-0.008461	-0.016151	-28.012575	-80.988479	164.922552
61086	3149165	9.609284	-0.645101	1.398998	-0.166188	-0.011685	-0.021243	-28.023965	-80.992233	164.909975
61087	3149190	9.638172	-0.676736	1.394939	-0.168745	-0.015861	-0.022715	-28.036319	-80.996615	164.898003
61088	3149215	9.528183	-0.651755	1.335162	-0.164200	-0.020792	-0.022301	-28.050424	-81.001629	164.888417
61089	3149240	9.508815	-0.673802	1.353688	-0.160585	-0.024617	-0.017260	-28.069694	-81.006751	164.884630
61090	3149265	9.510127	-0.699987	1.364220	-0.157182	-0.025447	-0.008862	-28.095548	-81.011412	164.888003
61091	3149290	9.519727	-0.739848	1.354802	-0.168326	-0.030431	-0.009513	-28.124621	-81.016746	164.893019
61092	3149315	9.533385	-0.782575	1.379902	-0.178792	-0.030245	-0.010738	-28.154130	-81.022175	164.896914
61093	3149340	9.576135	-0.764631	1.366705	-0.196061	-0.036620	-0.015119	-28.185386	-81.028670	164.900117
61094	3149365	9.578855	-0.757836	1.386662	-0.202104	-0.033675	-0.015420	-28.216027	-81.034812	164.901823
61095	3149390	9.573455	-0.731586	1.357511	-0.207859	-0.039122	-0.020599	-28.245710	-81.041993	164.901723
61096	3149415	9.605160	-0.700008	1.360295	-0.221995	-0.043587	-0.013156	-28.285302	-81.049267	164.909561
61097	3149440	9.594131	-0.739831	1.345545	-0.235184	-0.043489	-0.012058	-28.327685	-81.056419	164.918356
61098	3149465	9.567923	-0.781030	1.336085	-0.253977	-0.051124	-0.010996	-28.376957	-81.064459	164.931399
61099	3149490	9.595438	-0.852451	1.306645	-0.269988	-0.046285	-0.009665	-28.427547	-81.071797	164.943454
61100	3149515	9.593969	-0.892381	1.317144	-0.283781	-0.048108	-0.008823	-28.481612	-81.079341	164.956978
61101	3149540	9.574764	-0.885383	1.289244	-0.302187	-0.043687	-0.005546	-28.539094	-81.086067	164.971341
61102	3149565	9.555534	-0.897704	1.265265	-0.319751	-0.043200	-0.000548	-28.602945	-81.092388	164.989604
61103	3149590	9.574805	-0.888086	1.277283	-0.322202	-0.041097	0.006844	-28.672216	-81.097933	165.012997
61104	3149615	9.530783	-0.872928	1.261358	-0.331061	-0.040837	0.014701	-28.748990	-81.102934	165.042642
61105	3149640	9.504571	-0.899059	1.271882	-0.355153	-0.041024	0.029227	-28.841024	-81.106916	165.084298
61106	3149665	9.547093	-0.958351	1.302268	-0.367537	-0.038932	0.031035	-28.935415	-81.110500	165.126543
61107	3149690	9.617226	-0.979085	1.330163	-0.384577	-0.043060	0.035155	-29.037438	-81.114303	165.174041
61108	3149715	9.636441	-0.969609	1.362066	-0.402489	-0.040340	0.039768	-29.144565	-81.117466	165.224041
61109	3149740	9.648831	-0.960003	1.372729	-0.426167	-0.043769	0.051382	-29.265973	-81.120196	165.285130
61110	3149765	9.636390	-0.969647	1.384627	-0.455405	-0.051308	0.053634	-29.396816	-81.123689	165.351528
61111	3149790	9.639206	-0.947619	1.371469	-0.471967	-0.057891	0.056489	-29.535363	-81.127777	165.423323
61112	3149815	9.604851	-0.943360	1.344881	-0.491874	-0.049773	0.062920	-29.678305	-81.130406	165.496602
61113	3149840	9.632574	-0.904711	1.294519	-0.513697	-0.046211	0.067694	-29.826615	-81.132190	165.572227
61114	3149865	9.592711	-0.934752	1.247935	-0.537406	-0.039811	0.074349	-29.980727	-81.132673	165.650287
61115	3149890	9.631240	-0.941651	1.254548	-0.559257	-0.031415	0.077537	-30.136648	-81.131854	165.727009
61116	3149915	9.569430	-0.889250	1.218817	-0.575307	-0.028525	0.077403	-30.293411	-81.130688	165.802172
61117	3149940	9.576514	-0.806612	1.184559	-0.576557	-0.016761	0.080998	-30.447695	-81.127743	165.874730
61118	3149965	9.555900	-0.772249	1.193956	-0.575860	-0.014657	0.084682	-30.603731	-81.124240	165.949165
61119	3149990	9.570987	-0.803904	1.195200	-0.571047	-0.005800	0.090930	-30.759764	-81.119159	166.024293
61120	3150015	9.510397	-0.835452	1.173785	-0.570247	-0.005940	0.094804	-30.918673	-81.113811	166.102359
61121	3150040	9.526811	-0.894605	1.185562	-0.562820	-0.003164	0.097014	-31.076788	-81.107893	166.180791
61122	3150065	9.572339	-0.883532	1.160394	-0.557332	0.003928	0.097372	-31.230880	-81.101046	166.255947
61123	3150090	9.599717	-0.948261	1.189400	-0.552599	0.006399	0.096330	-31.382130	-81.093943	166.328914
61124	3150115	9.598231	-1.028058	1.190458	-0.552403	0.002849	0.090182	-31.530098	-81.087737	166.398486
61125	3150140	9.617380	-1.039206	1.235612	-0.556292	0.000209	0.084576	-31.675359	-81.082214	166.464859
61126	3150165	9.625525	-1.079205	1.259401	-0.553204	-0.001256	0.084916	-31.821016	-81.076817	166.532080
61127	3150190	9.680524	-1.113634	1.277914	-0.553326	-0.008105	0.072110	-31.959952	-81.073196	166.592482
61129	3150215	9.684554	-1.148105	1.299059	-0.550842	-0.013611	0.075753	-32.103961	-81.069977	166.658262
61131	3150240	9.674758	-1.186766	1.334793	-0.541027	-0.026321	0.065440	-32.244679	-81.069027	166.722252
61132	3150265	9.698144	-1.195050	1.340073	-0.540337	-0.032826	0.066465	-32.389239	-81.068761	166.790231
61133	3150290	9.677531	-1.179870	1.330825	-0.526735	-0.050466	0.064175	-32.538722	-81.070776	166.865165
61134	3150315	9.689939	-1.155168	1.340208	-0.519125	-0.062875	0.064498	-32.693559	-81.074264	166.946491
61135	3150340	9.647335	-1.144028	1.309690	-0.506686	-0.075179	0.064161	-32.852491	-81.079194	167.033896
61136	3150365	9.644721	-1.138334	1.256564	-0.509274	-0.076698	0.064965	-33.013299	-81.084206	167.122823
61137	3150390	9.648965	-1.123066	1.219408	-0.507429	-0.078486	0.061429	-33.172170	-81.089671	167.210056
61138	3150415	9.625720	-1.088507	1.171665	-0.510624	-0.078638	0.067684	-33.336556	-81.094655	167.302261
61139	3150440	9.638310	-1.066276	1.107992	-0.517803	-0.076726	0.074665	-33.506423	-81.098788	167.399118
61140	3150465	9.609542	-1.076990	1.037537	-0.533074	-0.058973	0.076365	-33.670899	-81.100623	167.488302
61141	3150490	9.590141	-1.116970	1.062639	-0.550175	-0.040805	0.087380	-33.837004	-81.099379	167.576657
61142	3150515	9.599741	-1.093700	1.094587	-0.565684	-0.026406	0.090607	-34.000452	-81.096156	167.659909
61143	3150540	9.598212	-1.118642	1.139711	-0.563379	-0.016043	0.111419	-34.173843	-81.089965	167.753726
61144	3150565	9.671230	-1.111741	1.133088	-0.555018	-0.010459	0.109077	-34.341211	-81.083258	167.842661
61145	3150590	9.738940	-1.053777	1.074865	-0.565143	-0.003347	0.117050	-34.512162	-81.075025	167.933754
61146	3150615	9.748630	-0.975490	1.103016	-0.579378	0.004227	0.113952	-34.678738	-81.066139	168.018180
61147	3150640	9.785885	-0.919132	1.104596	-0.591284	0.011815	0.115375	-34.843816	-81.056176	168.099543
61148	3150665	9.726781	-0.929949	1.051404	-0.616147	0.023150	0.122844	-35.011838	-81.044232	168.180283
61149	3150690	9.762668	-0.947641	1.010141	-0.655227	0.037864	0.136225	-35.187368	-81.029425	168.262961
61150	3150715	9.768175	-0.962751	1.000797	-0.690514	0.053731	0.133652	-35.357398	-81.012967	168.334766
61151	3150740	9.804100	-0.882947	1.001080	-0.727983	0.070484	0.130360	-35.521053	-80.994763	168.394877
61152	3150765	9.817864	-0.887112	1.005049	-0.759202	0.084126	0.129026	-35.680580	-80.975056	168.446284
61153	3150790	9.868667	-0.917500	1.046168	-0.770196	0.092216	0.126147	-35.834865	-80.954627	168.490791
61154	3150815	9.819061	-0.938124	1.046083	-0.777742	0.099270	0.122651	-35.983614	-80.933687	168.528400
61155	3150840	9.776253	-0.997286	1.056478	-0.772828	0.106759	0.115898	-36.122307	-80.912402	168.556741
61156	3150865	9.730924	-0.947719	1.039358	-0.768617	0.104322	0.111868	-36.258390	-80.891730	168.583051
61157	3150890	9.689519	-0.968411	1.065805	-0.762721	0.106323	0.097388	-36.381809	-80.872045	168.597392
61158	3150915	9.645328	-0.983694	1.102946	-0.752081	0.109552	0.088270	-36.495270	-80.852792	168.602981
61159	3150940	9.643987	-0.964418	1.102992	-0.733352	0.108062	0.076626	-36.598196	-80.834669	168.600827
61160	3150965	9.641034	-1.059429	1.125288	-0.721505	0.097528	0.062513	-36.694767	-80.818965	168.593954
61161	3150990	9.730536	-1.078663	1.119965	-0.708290	0.095540	0.046702	-36.779134	-80.804845	168.576637
61162	3151015	9.766327	-1.113019	1.107878	-0.697747	0.088786	0.036900	-36.858628	-80.792377	168.555691
61163	3151040	9.785456	-1.129717	1.159650	-0.688547	0.079426	0.028040	-36.935335	-80.781715	168.533476
61164	3151065	9.793538	-1.165659	1.208700	-0.669485	0.067569	0.019699	-37.009661	-80.773134	168.511615
61165	3151090	9.801851	-1.120324	1.218143	-0.641495	0.053585	0.015236	-37.084214	-80.766541	168.494046
61166	3151115	9.830823	-1.069475	1.227639	-0.618228	0.039865	0.010677	-37.159584	-80.761945	168.480449
61167	3151140	9.839211	-1.030898	1.198560	-0.605391	0.028975	0.014402	-37.241391	-80.758240	168.475468
61168	3151165	9.840775	-0.944110	1.174891	-0.601174	0.019808	0.005442	-37.321176	-80.756358	168.469050
61169	3151190	9.822937	-0.923461	1.157707	-0.601092	0.016658	0.008294	-37.404611	-80.754588	168.466343
61170	3151215	9.817538	-0.915071	1.119220	-0.624244	0.016327	0.014009	-37.495619	-80.752391	168.467713
61171	3151240	9.824291	-0.987982	1.132246	-0.645222	0.014566	0.009981	-37.587641	-80.750713	168.467301
61172	3151265	9.894557	-0.979729	1.127020	-0.675418	0.008823	0.007969	-37.685654	-80.749863	168.468576
61173	3151290	9.902932	-0.987807	1.075166	-0.692766	0.013132	0.008275	-37.784036	-80.748497	168.467708
61174	3151315	9.912729	-0.960117	1.023470	-0.709854	0.014687	0.004080	-37.881208	-80.747357	168.462893
61175	3151340	9.922385	-0.995762	0.996754	-0.724447	0.022924	0.006053	-37.977268	-80.745081	168.455074
61176	3151365	9.951251	-1.057587	0.984649	-0.737335	0.025968	0.003473	-38.071719	-80.742691	168.443754
61177	3151390	9.927931	-1.067099	0.940733	-0.749293	0.030947	0.001733	-38.163958	-80.739897	168.428458
61178	3151415	9.927967	-1.051883	0.938121	-0.764382	0.037025	0.001097	-38.254710	-80.736514	168.409208
61179	3151440	9.943114	-1.013498	0.956855	-0.766906	0.042439	-0.001015	-38.341282	-80.732679	168.385614
61180	3151465	9.926643	-0.996969	0.948935	-0.769884	0.044994	-0.001293	-38.426672	-80.728589	168.360389
61181	3151490	9.903275	-0.989991	0.936978	-0.781396	0.048117	-0.006586	-38.508345	-80.724625	168.329727
61182	3151515	9.802530	-1.045182	0.985916	-0.789231	0.051187	-0.014965	-38.583817	-80.721108	168.291374
61183	3151540	9.754039	-1.111488	1.064051	-0.781274	0.048444	-0.021817	-38.654821	-80.718483	168.249919
61184	3151565	9.731978	-1.082700	1.093338	-0.761974	0.034609	-0.021525	-38.730828	-80.717387	168.216334
61185	3151590	9.756598	-1.107628	1.147748	-0.744616	0.018090	-0.029431	-38.808002	-80.718852	168.186451
61186	3151615	9.755098	-1.135280	1.180868	-0.724337	-0.005320	-0.044534	-38.884958	-80.724328	168.159011
61187	3151640	9.762091	-1.106277	1.151712	-0.707390	-0.023270	-0.058344	-38.959853	-80.733017	168.132222
61188	3151665	9.775915	-1.092499	1.141162	-0.693910	-0.045756	-0.076228	-39.033075	-80.745827	168.105695
61189	3151690	9.773115	-1.118669	1.146359	-0.672706	-0.065869	-0.088477	-39.106105	-80.761985	168.082052
61190	3151715	9.771771	-1.100785	1.146434	-0.666532	-0.085077	-0.097738	-39.182822	-80.781155	168.062755
61191	3151740	9.782879	-1.088295	1.114613	-0.649001	-0.104734	-0.105958	-39.262374	-80.803219	168.049161
61192	3151765	9.797980	-1.124042	1.110528	-0.640944	-0.123715	-0.124845	-39.338624	-80.829104	168.033393
61193	3151790	9.799363	-1.144611	1.094528	-0.636603	-0.140037	-0.133547	-39.417647	-80.857590	168.021065
61194	3151815	9.739996	-1.184611	1.130181	-0.632022	-0.147402	-0.141630	-39.494962	-80.887664	168.007376
61195	3151840	9.727517	-1.193011	1.158084	-0.617409	-0.167769	-0.142702	-39.581128	-80.920054	168.005068
61196	3151865	9.665348	-1.307154	1.169656	-0.599046	-0.188437	-0.145587	-39.674816	-80.954988	168.013041
61197	3151890	9.643160	-1.403457	1.171974	-0.578107	-0.201820	-0.152963	-39.768492	-80.992069	168.024038
61198	3151915	9.674723	-1.484582	1.174342	-0.578508	-0.213413	-0.162277	-39.863051	-81.031312	168.035557
61199	3151940	9.720192	-1.480442	1.167768	-0.578509	-0.222865	-0.173688	-39.955474	-81.072604	168.045225
61200	3151965	9.689873	-1.453063	1.185096	-0.580750	-0.230683	-0.175218	-40.052221	-81.114893	168.058943
61201	3151990	9.691172	-1.502579	1.188952	-0.590745	-0.235082	-0.175045	-40.153659	-81.157644	168.075958
61202	3152015	9.671746	-1.548063	1.225974	-0.592908	-0.238664	-0.167066	-40.263924	-81.200076	168.101261
61203	3152040	9.684101	-1.552247	1.241893	-0.587544	-0.247458	-0.168665	-40.378064	-81.243577	168.131589
61204	3152065	9.700529	-1.567506	1.265810	-0.573458	-0.251061	-0.161129	-40.498443	-81.286761	168.170266
61205	3152090	9.646638	-1.625394	1.309410	-0.552234	-0.257593	-0.159687	-40.621583	-81.330508	168.214809
61206	3152115	9.613314	-1.675208	1.390316	-0.518228	-0.268650	-0.156368	-40.750054	-81.375162	168.269317
61207	3152140	9.695723	-1.789450	1.409915	-0.484370	-0.281177	-0.149368	-40.887233	-81.420469	168.337879
61208	3152165	9.747989	-1.821100	1.424412	-0.459048	-0.286645	-0.165647	-41.013556	-81.467873	168.399121
61209	3152190	9.822431	-1.874559	1.363207	-0.448538	-0.287090	-0.180979	-41.128600	-81.516748	168.450475
61210	3152215	9.915116	-1.845150	1.210581	-0.466345	-0.274007	-0.200537	-41.224832	-81.566068	168.479853
61211	3152240	9.980403	-1.696087	1.076878	-0.500412	-0.250229	-0.208367	-41.305526	-81.613536	168.488958
61212	3152265	10.026230	-1.573393	0.990983	-0.539921	-0.223726	-0.213969	-41.371189	-81.658682	168.477150
61213	3152290	10.030475	-1.482646	0.996570	-0.586037	-0.188665	-0.208710	-41.424875	-81.699564	168.446562
61214	3152315	9.980830	-1.438826	1.044548	-0.614035	-0.161751	-0.195321	-41.475259	-81.736315	168.408191
61215	3152340	9.955835	-1.483032	1.101514	-0.614445	-0.147682	-0.179034	-41.528375	-81.769991	168.372922
61216	3152365	9.956976	-1.560244	1.153072	-0.612278	-0.130364	-0.167483	-41.578431	-81.800719	168.334878
61217	3152390	9.931983	-1.666210	1.177941	-0.610089	-0.119083	-0.165322	-41.622358	-81.830037	168.290961
61218	3152415	9.911238	-1.699254	1.192439	-0.597769	-0.106744	-0.168471	-41.654206	-81.858359	168.236209
61219	3152440	9.890619	-1.670365	1.195178	-0.585866	-0.097390	-0.174224	-41.673448	-81.886210	168.170869
61220	3152465	9.881001	-1.627811	1.208570	-0.570329	-0.088705	-0.173916	-41.684716	-81.913105	168.099725
61221	3152490	9.890586	-1.633382	1.228499	-0.551069	-0.086917	-0.176492	-41.689870	-81.940056	168.025198
61222	3152515	9.872635	-1.600531	1.267128	-0.538459	-0.085160	-0.189655	-41.682083	-81.968091	167.938994
61223	3152540	9.856150	-1.578493	1.259221	-0.517598	-0.082436	-0.189491	-41.668985	-81.995798	167.850887
61224	3152565	9.846578	-1.577001	1.236622	-0.490895	-0.081278	-0.194927	-41.646763	-82.023895	167.757434
61225	3152590	9.817772	-1.542557	1.208838	-0.471930	-0.084482	-0.189704	-41.627600	-82.051834	167.669819
61226	3152615	9.819087	-1.593390	1.207332	-0.446384	-0.086914	-0.195587	-41.601809	-82.080603	167.578762
61227	3152640	9.799768	-1.645588	1.191208	-0.420877	-0.085662	-0.199196	-41.567997	-82.109559	167.483753
61228	3152665	9.809518	-1.628983	1.154063	-0.396063	-0.087480	-0.207053	-41.525293	-82.139448	167.383363
61229	3152690	9.806810	-1.633000	1.139407	-0.370641	-0.092956	-0.211415	-41.478766	-82.170327	167.282796
61231	3152715	9.771092	-1.636983	1.098206	-0.344007	-0.097297	-0.220653	-41.423897	-82.202550	167.177194
61233	3152740	9.735426	-1.588754	1.066408	-0.330170	-0.100069	-0.224921	-41.364625	-82.235447	167.069631
61234	3152765	9.724568	-1.554207	1.026710	-0.308022	-0.097191	-0.222975	-41.301005	-82.267835	166.960890
61235	3152790	9.688819	-1.532131	1.012116	-0.293089	-0.096393	-0.219686	-41.236581	-82.299809	166.853503
61236	3152815	9.648982	-1.508670	0.986934	-0.275072	-0.099291	-0.227410	-41.165029	-82.332819	166.741040
61237	3152840	9.614677	-1.500214	0.937765	-0.268210	-0.096035	-0.223047	-41.092594	-82.365036	166.629183
61238	3152865	9.635371	-1.508366	0.919166	-0.264093	-0.095959	-0.225741	-41.016551	-82.397480	166.514290
61239	3152890	9.650642	-1.493144	0.879378	-0.259382	-0.093642	-0.228749	-40.934929	-82.429934	166.394458
61240	3152915	9.656239	-1.469656	0.856868	-0.259799	-0.091934	-0.221902	-40.857262	-82.461549	166.278038
61241	3152940	9.623244	-1.448989	0.846268	-0.255390	-0.090259	-0.224663	-40.774321	-82.493209	166.157470
61242	3152965	9.540610	-1.454441	0.842249	-0.253792	-0.083783	-0.219013	-40.690361	-82.523616	166.036113
61243	3152990	9.506169	-1.491527	0.827473	-0.242873	-0.085752	-0.212966	-40.610432	-82.553650	165.920408
61244	3153015	9.514418	-1.505251	0.823441	-0.231382	-0.078923	-0.204889	-40.530329	-82.582175	165.805641
61245	3153040	9.518491	-1.541055	0.828638	-0.209059	-0.080639	-0.206551	-40.445713	-82.611013	165.690108
61246	3153065	9.536512	-1.524403	0.787538	-0.200486	-0.082450	-0.198871	-40.366873	-82.639313	165.581646
61247	3153090	9.588931	-1.533873	0.750310	-0.190492	-0.080299	-0.195809	-40.286930	-82.667076	165.473522
61248	3153115	9.623262	-1.579329	0.760832	-0.179008	-0.077443	-0.196290	-40.202581	-82.694558	165.362031
61249	3153140	9.650992	-1.563954	0.698457	-0.174724	-0.075091	-0.197017	-40.114131	-82.721821	165.247620
61250	3153165	9.688189	-1.520033	0.718543	-0.175051	-0.065768	-0.201909	-40.014000	-82.748489	165.121393
61251	3153190	9.697803	-1.535149	0.718452	-0.176942	-0.052981	-0.218552	-39.889612	-82.775253	164.970449
61252	3153215	9.709018	-1.438792	0.696240	-0.177494	-0.048505	-0.214501	-39.765031	-82.801117	164.818614
61253	3153240	9.793206	-1.365850	0.669927	-0.166987	-0.038949	-0.212200	-39.632567	-82.825669	164.660984
61254	3153265	9.838762	-1.280595	0.672920	-0.162856	-0.034896	-0.198594	-39.507560	-82.848487	164.511476
61255	3153290	9.888296	-1.306774	0.672863	-0.151917	-0.026841	-0.185764	-39.385615	-82.869207	164.366639
61256	3153315	9.866223	-1.358934	0.655393	-0.143224	-0.014716	-0.166488	-39.270470	-82.886802	164.229255
61257	3153340	9.897880	-1.375422	0.657992	-0.145927	-0.013055	-0.158772	-39.160271	-82.903474	164.097132
61258	3153365	9.909002	-1.354688	0.626208	-0.151627	-0.004174	-0.151592	-39.050300	-82.918479	163.964420
61259	3153390	9.917328	-1.344985	0.610270	-0.152022	-0.001301	-0.139606	-38.948559	-82.932054	163.839947
61260	3153415	9.936577	-1.350531	0.614271	-0.173944	-0.000085	-0.137690	-38.850900	-82.945299	163.715732
61261	3153440	9.931053	-1.335458	0.634244	-0.182140	0.000712	-0.139971	-38.750829	-82.958629	163.588603
61262	3153465	9.902127	-1.336840	0.634212	-0.195248	0.000903	-0.136968	-38.654794	-82.971641	163.463652
61263	3153490	9.895318	-1.324383	0.613001	-0.198619	0.003751	-0.131036	-38.562168	-82.983779	163.341653
61264	3153515	9.882941	-1.270826	0.635767	-0.203224	0.007811	-0.125371	-38.472620	-82.994939	163.221361
61265	3153540	9.888575	-1.270622	0.582618	-0.209783	0.008699	-0.122315	-38.385271	-83.005699	163.103074
61266	3153565	9.829423	-1.218410	0.589372	-0.212033	0.001630	-0.116429	-38.308453	-83.016709	162.995074
61267	3153590	9.843205	-1.232078	0.577385	-0.209180	-0.001796	-0.102703	-38.246046	-83.026871	162.902007
61268	3153615	9.822577	-1.214214	0.574792	-0.210112	-0.000177	-0.097582	-38.187685	-83.036390	162.812118
61269	3153640	9.811637	-1.163287	0.570947	-0.202395	0.005031	-0.086546	-38.133846	-83.044330	162.728665
61270	3153665	9.810185	-1.163445	0.601516	-0.194933	0.005433	-0.092831	-38.072672	-83.052770	162.638902
61271	3153690	9.790839	-1.178578	0.617453	-0.184110	-0.000979	-0.085385	-38.021316	-83.061265	162.560592
61272	3153715	9.819744	-1.208837	0.613328	-0.177373	-0.003205	-0.083867	-37.972478	-83.069875	162.484994
61273	3153740	9.814280	-1.196391	0.600080	-0.175586	-0.003998	-0.085503	-37.921663	-83.078705	162.408462
61274	3153765	9.792139	-1.241844	0.611892	-0.165962	-0.010893	-0.083965	-37.875740	-83.088171	162.338248
61275	3153790	9.749548	-1.196409	0.601381	-0.163437	-0.009772	-0.077540	-37.834489	-83.096939	162.273106
61276	3153815	9.702785	-1.162001	0.593486	-0.150944	-0.014107	-0.071478	-37.800780	-83.105667	162.216535
61277	3153840	9.626902	-1.160808	0.649245	-0.137167	-0.020014	-0.067562	-37.772299	-83.114710	162.168048
61278	3153865	9.533272	-1.145667	0.651893	-0.120945	-0.030725	-0.055759	-37.760265	-83.123927	162.138469
61279	3153890	9.472583	-1.148573	0.693057	-0.095682	-0.036888	-0.050990	-37.753527	-83.133424	162.117870
61280	3153915	9.454621	-1.176072	0.699579	-0.083262	-0.041164	-0.045435	-37.753993	-83.142925	162.105462
61281	3153940	9.491760	-1.214574	0.695492	-0.061555	-0.056802	-0.049880	-37.757887	-83.154579	162.100496
61282	3153965	9.509744	-1.251506	0.639611	-0.074877	-0.056374	-0.048208	-37.764956	-83.166039	162.096806
61283	3153990	9.527607	-1.302330	0.623474	-0.084080	-0.057800	-0.046188	-37.776308	-83.177483	162.096102
61284	3154015	9.520737	-1.325652	0.602155	-0.095476	-0.062387	-0.045830	-37.793728	-83.189420	162.098974
61285	3154040	9.501518	-1.318699	0.583559	-0.092690	-0.059928	-0.035790	-37.817796	-83.200192	162.109835
61286	3154065	9.478208	-1.244424	0.582439	-0.089104	-0.060175	-0.034809	-37.842521	-83.210905	162.121873
61287	3154090	9.468559	-1.248552	0.582460	-0.068639	-0.065166	-0.029254	-37.873346	-83.221694	162.143006
61288	3154115	9.509930	-1.258071	0.562503	-0.060645	-0.063470	-0.022531	-37.908991	-83.231703	162.169223
61289	3154140	9.474101	-1.292440	0.549092	-0.055331	-0.063232	-0.019065	-37.946356	-83.241373	162.198860
61290	3154165	9.454947	-1.249692	0.519988	-0.057209	-0.066286	-0.014004	-37.991188	-83.250939	162.235746
61291	3154190	9.434329	-1.237270	0.509385	-0.056101	-0.063059	-0.011903	-38.035573	-83.259952	162.272341
61292	3154215	9.391749	-1.171212	0.505599	-0.051759	-0.054257	-0.008963	-38.076439	-83.267715	162.305057
61293	3154240	9.347686	-1.161619	0.510902	-0.044891	-0.050996	-0.004347	-38.117600	-83.274694	162.340021
61294	3154265	9.318676	-1.190524	0.528068	-0.048183	-0.046532	-0.000829	-38.159322	-83.280856	162.375074
61295	3154290	9.322903	-1.095710	0.544346	-0.045918	-0.048248	-0.000300	-38.202587	-83.287162	162.412007
61296	3154315	9.309378	-0.978708	0.512826	-0.046349	-0.045323	0.006609	-38.251193	-83.292527	162.453266
61297	3154340	9.306689	-0.890773	0.539682	-0.040281	-0.040434	0.017056	-38.304501	-83.296407	162.501123
61298	3154365	9.303953	-0.894840	0.529036	-0.042567	-0.047444	0.026429	-38.372460	-83.300235	162.563403
61299	3154390	9.302559	-0.899020	0.534337	-0.055873	-0.043903	0.034951	-38.447858	-83.302899	162.631253
61300	3154415	9.264028	-0.860514	0.543754	-0.063092	-0.042096	0.043769	-38.532212	-83.304568	162.706067
61301	3154440	9.308069	-0.844108	0.567746	-0.071053	-0.041215	0.045802	-38.618194	-83.305938	162.782384
61302	3154465	9.331518	-0.789185	0.583882	-0.071470	-0.040902	0.049289	-38.707351	-83.306948	162.861837
61303	3154490	9.331568	-0.731469	0.595994	-0.073907	-0.050278	0.058666	-38.812977	-83.308149	162.957521
61304	3154515	9.356400	-0.724547	0.585427	-0.078234	-0.053914	0.066881	-38.930681	-83.309000	163.063715
61305	3154540	9.378424	-0.746483	0.573412	-0.085025	-0.059003	0.068037	-39.053568	-83.310282	163.175174
61306	3154565	9.399220	-0.680414	0.557710	-0.092900	-0.055549	0.063217	-39.170397	-83.311588	163.279398
61307	3154590	9.407572	-0.615800	0.564593	-0.100730	-0.046134	0.067523	-39.285181	-83.311435	163.380434
61308	3154615	9.415860	-0.559510	0.584699	-0.107285	-0.037043	0.071460	-39.398406	-83.309901	163.477917
61309	3154640	9.453064	-0.541656	0.587451	-0.101793	-0.022943	0.077775	-39.504959	-83.306204	163.570512
61310	3154665	9.491577	-0.532118	0.611391	-0.114626	-0.011988	0.081852	-39.608552	-83.300905	163.658278
61311	3154690	9.495583	-0.570744	0.639214	-0.123934	-0.005452	0.094076	-39.719698	-83.293750	163.752306
61312	3154715	9.571087	-0.602667	0.717539	-0.125913	0.009486	0.100079	-39.825712	-83.284385	163.839844
61313	3154740	9.566759	-0.668860	0.762467	-0.121665	0.014368	0.113937	-39.939118	-83.273185	163.936480
61314	3154765	9.627215	-0.649875	0.827678	-0.113805	0.021659	0.122432	-40.053248	-83.260380	164.034979
61315	3154790	9.675160	-0.662620	0.922018	-0.100966	0.017235	0.130467	-40.176017	-83.247294	164.144033
61316	3154815	9.659861	-0.618887	1.005821	-0.099067	0.015135	0.131370	-40.301358	-83.234333	164.254920
61317	3154840	9.696971	-0.599849	1.053710	-0.088933	0.012001	0.131899	-40.426910	-83.221630	164.368518
61318	3154865	9.736644	-0.587864	1.166745	-0.084642	-0.004055	0.131504	-40.563598	-83.210682	164.493952
61319	3154890	9.805372	-0.530444	1.257260	-0.080630	-0.020377	0.134408	-40.714721	-83.201200	164.634505
61320	3154915	9.828609	-0.532094	1.321101	-0.081384	-0.046590	0.142667	-40.894422	-83.193744	164.802722
61321	3154940	9.809295	-0.491007	1.365035	-0.071871	-0.062615	0.149094	-41.090012	-83.187346	164.989326
61322	3154965	9.829845	-0.471957	1.415603	-0.072096	-0.092220	0.153178	-41.312358	-83.183673	165.202846
61323	3154990	9.814591	-0.443269	1.478155	-0.070161	-0.113297	0.150864	-41.548857	-83.182382	165.430899
61324	3155015	9.888854	-0.472267	1.507281	-0.080045	-0.146715	0.151387	-41.814603	-83.184500	165.686011
61325	3155040	9.843473	-0.487261	1.470037	-0.093034	-0.181751	0.151184	-42.109578	-83.190218	165.969655
61326	3155065	9.887501	-0.485991	1.489994	-0.114289	-0.210176	0.150979	-42.430916	-83.198788	166.276779
61327	3155090	9.892959	-0.513506	1.487275	-0.132695	-0.233959	0.157894	-42.781201	-83.208981	166.610393
61328	3155115	9.949381	-0.543774	1.489879	-0.144170	-0.252298	0.165875	-43.157010	-83.220065	166.967120
61329	3155140	9.912161	-0.538337	1.507132	-0.159834	-0.267081	0.168046	-43.549694	-83.232194	167.339501
61330	3155165	9.910678	-0.508266	1.563039	-0.172952	-0.280623	0.171825	-43.960267	-83.245042	167.727995
61331	3155190	9.951891	-0.527688	1.598914	-0.187510	-0.289923	0.172672	-44.383041	-83.258427	168.126665
61333	3155215	9.917321	-0.542933	1.640025	-0.189568	-0.296129	0.172469	-44.813568	-83.272112	168.531952
61335	3155240	9.930961	-0.552791	1.693110	-0.179729	-0.309943	0.177188	-45.259630	-83.286357	168.955170
61336	3155265	10.024599	-0.569278	1.686500	-0.172211	-0.324313	0.178406	-45.720015	-83.301529	169.393882
61337	3155290	10.023246	-0.567860	1.678514	-0.162767	-0.330067	0.183053	-46.190065	-83.316379	169.843672
61338	3155315	10.076807	-0.590056	1.727643	-0.140558	-0.339448	0.182159	-46.667225	-83.331805	170.302984
61339	3155340	10.094564	-0.625991	1.763414	-0.132374	-0.352325	0.189340	-47.162267	-83.347295	170.782291
61340	3155365	10.137096	-0.656417	1.808526	-0.126229	-0.358643	0.194536	-47.668719	-83.362363	171.273958
61341	3155390	10.193306	-0.684277	1.896142	-0.131403	-0.368822	0.209218	-48.199577	-83.376331	171.789434
61342	3155415	10.244153	-0.743422	1.907943	-0.127611	-0.385599	0.224109	-48.760413	-83.389712	172.334854
61343	3155440	10.270303	-0.801177	1.883849	-0.127456	-0.391030	0.232042	-49.334292	-83.402138	172.894180
61344	3155465	10.233077	-0.880754	1.847675	-0.133626	-0.397033	0.236818	-49.920649	-83.413946	173.465163
61345	3155490	10.255152	-0.909530	1.821027	-0.127728	-0.402723	0.237122	-50.513875	-83.425568	174.043898
61346	3155515	10.201387	-0.961705	1.798314	-0.133580	-0.394073	0.234146	-51.099832	-83.436032	174.613745
61347	3155540	10.220672	-0.978189	1.798195	-0.143553	-0.388894	0.233117	-51.682556	-83.445505	175.179602
61348	3155565	10.253614	-1.015403	1.815394	-0.141177	-0.380176	0.230464	-52.255910	-83.453855	175.736361
61349	3155590	10.316922	-1.052532	1.812638	-0.139040	-0.374465	0.223565	-52.819447	-83.461861	176.283538
61350	3155615	10.396807	-1.079993	1.791380	-0.142747	-0.370166	0.223851	-53.381262	-83.468825	176.827773
61351	3155640	10.474010	-1.082613	1.759520	-0.143135	-0.358309	0.217313	-53.926897	-83.474965	177.356325
61352	3155665	10.616064	-1.038390	1.703939	-0.139990	-0.345007	0.209214	-54.453577	-83.480368	177.866246
61353	3155690	10.646605	-0.987313	1.637678	-0.139971	-0.331548	0.194615	-54.956736	-83.485844	178.352489
61354	3155715	10.659034	-0.985867	1.619088	-0.151826	-0.310798	0.191653	-55.439323	-83.489463	178.815696
61355	3155740	10.631573	-0.959642	1.600556	-0.160594	-0.295100	0.180849	-55.899236	-83.492693	179.255433
61356	3155765	10.474573	-0.954122	1.605811	-0.180271	-0.278421	0.171345	-56.338329	-83.495330	179.671374
61357	3155790	10.379584	-0.933490	1.608454	-0.200516	-0.266486	0.168066	-56.765841	-83.497061	-179.927260
61358	3155815	10.185437	-0.899106	1.605802	-0.212815	-0.253767	0.163509	-57.179224	-83.497975	-179.542458
61359	3155840	10.021476	-0.886798	1.641647	-0.200422	-0.237536	0.168404	-57.576560	-83.496774	-179.171451
61360	3155865	9.880893	-0.884209	1.692035	-0.190796	-0.228892	0.170307	-57.964423	-83.494394	-178.808590
61361	3155890	9.766566	-0.874597	1.705285	-0.185952	-0.220972	0.170586	-58.343022	-83.491106	-178.454352
61362	3155915	9.620507	-0.854117	1.746463	-0.184838	-0.211725	0.169691	-58.710969	-83.486934	-178.111185
61363	3155940	9.450876	-0.843485	1.851342	-0.184815	-0.209780	0.167780	-59.074733	-83.482645	-177.771709
61364	3155965	9.355575	-0.860329	1.952179	-0.189365	-0.209248	0.164948	-59.436295	-83.478422	-177.435102
61365	3155990	9.282451	-0.846790	2.014663	-0.199592	-0.222074	0.157897	-59.808295	-83.475754	-177.089462
61366	3156015	9.241187	-0.784979	2.030766	-0.198260	-0.229311	0.157467	-60.187708	-83.473356	-176.736605
61367	3156040	9.119167	-0.633188	1.899664	-0.203194	-0.237568	0.161169	-60.578506	-83.470857	-176.372560
61368	3156065	9.105390	-0.649654	1.890344	-0.212863	-0.238787	0.168325	-60.976061	-83.467264	-176.003105
61369	3156090	9.131421	-0.700632	1.914097	-0.219463	-0.241043	0.174621	-61.380370	-83.462742	-175.627801
61370	3156115	9.106489	-0.784540	1.925759	-0.230007	-0.245856	0.176950	-61.792548	-83.457903	-175.246456
61371	3156140	9.124131	-0.913932	1.954563	-0.237158	-0.242145	0.168264	-62.195751	-83.453652	-174.874809
61372	3156165	9.146064	-0.982695	1.951695	-0.238131	-0.246537	0.165407	-62.601796	-83.449755	-174.500440
61373	3156190	9.136470	-1.005932	1.919724	-0.242376	-0.244088	0.166324	-63.005767	-83.445280	-174.128767
61374	3156215	9.187263	-1.069348	1.950088	-0.239508	-0.245929	0.155059	-63.404713	-83.442016	-173.762028
61375	3156240	9.198102	-1.120358	1.988500	-0.227234	-0.237793	0.152929	-63.791078	-83.438271	-173.405888
61376	3156265	9.196518	-1.218118	2.018701	-0.213310	-0.240974	0.143020	-64.173199	-83.435729	-173.052010
61377	3156290	9.232013	-1.344864	2.071452	-0.177616	-0.248426	0.135571	-64.554296	-83.434341	-172.694014
61378	3156315	9.278774	-1.412144	2.053999	-0.148590	-0.254010	0.120458	-64.929481	-83.434926	-172.338012
61379	3156340	9.246027	-1.332162	1.979841	-0.128318	-0.253204	0.108498	-65.294588	-83.436809	-171.989006
61380	3156365	9.270732	-1.400878	1.968977	-0.105397	-0.255387	0.101703	-65.655589	-83.439455	-171.640829
61381	3156390	9.325602	-1.550803	1.975184	-0.086938	-0.256109	0.097920	-66.013124	-83.442389	-171.293481
61382	3156415	9.361353	-1.675724	1.918997	-0.066629	-0.251776	0.082539	-66.355439	-83.446782	-170.958699
61383	3156440	9.388915	-1.753948	1.870914	-0.039470	-0.243869	0.063021	-66.675581	-83.453130	-170.642153
61384	3156465	9.323082	-1.694479	1.788711	-0.011633	-0.227615	0.041974	-66.963364	-83.461141	-170.354168
61385	3156490	9.272437	-1.570532	1.738604	0.018914	-0.204606	0.023927	-67.212182	-83.470096	-170.101004
61386	3156515	9.220356	-1.449389	1.701755	0.038560	-0.184941	0.019623	-67.434010	-83.478347	-169.872306
61387	3156540	9.140520	-1.384808	1.727171	0.053386	-0.167620	0.020672	-67.634719	-83.485484	-169.662603
61388	3156565	9.059470	-1.325498	1.679492	0.058854	-0.145966	0.023872	-67.811428	-83.490942	-169.476269
61389	3156590	8.994800	-1.295210	1.671580	0.057176	-0.126116	0.037795	-67.972119	-83.493420	-169.306300
61390	3156615	8.963203	-1.256639	1.665038	0.066343	-0.115174	0.043185	-68.121299	-83.494473	-169.146675
61391	3156640	8.851735	-1.220837	1.654431	0.058740	-0.103714	0.055987	-68.264285	-83.493238	-168.994301
61392	3156665	8.789960	-1.149155	1.614803	0.043765	-0.089802	0.061308	-68.395578	-83.490518	-168.855855
61393	3156690	8.813323	-1.112168	1.656116	0.030652	-0.081736	0.056568	-68.517040	-83.487971	-168.729194
61394	3156715	8.810614	-1.079155	1.657546	0.015119	-0.074847	0.050035	-68.629450	-83.485830	-168.613905
61395	3156740	8.761189	-0.988378	1.649838	0.003444	-0.074466	0.049303	-68.742825	-83.483816	-168.499304
61396	3156765	8.739085	-0.955524	1.692442	-0.012128	-0.075227	0.052354	-68.860629	-83.481408	-168.382490
61397	3156790	8.721201	-0.884115	1.729861	-0.021578	-0.084466	0.053619	-68.991075	-83.479278	-168.254314
61398	3156815	8.636036	-0.805585	1.688904	-0.029747	-0.088315	0.052539	-69.126418	-83.477379	-168.122343
61399	3156840	8.556359	-0.713295	1.661228	-0.037166	-0.092332	0.049055	-69.266119	-83.476192	-167.987099
61400	3156865	8.487675	-0.625212	1.642897	-0.047196	-0.098537	0.056145	-69.417601	-83.474328	-167.841441
61401	3156890	8.457463	-0.593503	1.627054	-0.061719	-0.095850	0.055332	-69.567571	-83.472396	-167.699399
61402	3156915	8.427267	-0.527484	1.623269	-0.075714	-0.096907	0.056233	-69.720808	-83.470275	-167.555970
61403	3156940	8.403924	-0.487568	1.620722	-0.084369	-0.098929	0.061050	-69.879919	-83.467640	-167.407991
61404	3156965	8.351619	-0.447714	1.631457	-0.092407	-0.095491	0.059524	-70.035365	-83.464994	-167.264860
61405	3156990	8.271964	-0.370511	1.582526	-0.095610	-0.091496	0.065516	-70.188988	-83.461303	-167.124024
61406	3157015	8.278845	-0.345814	1.602516	-0.097446	-0.083743	0.074376	-70.336961	-83.455924	-166.988944
61407	3157040	8.192021	-0.312960	1.649070	-0.097907	-0.081213	0.076903	-70.483200	-83.450120	-166.855869
61408	3157065	8.092680	-0.300847	1.723488	-0.087871	-0.076102	0.081921	-70.623820	-83.443356	-166.727001
61409	3157090	8.073256	-0.310664	1.779230	-0.067657	-0.075194	0.084171	-70.761124	-83.436209	-166.598555
61410	3157115	8.102066	-0.327330	1.815062	-0.051253	-0.078018	0.080815	-70.897310	-83.429538	-166.468582
61411	3157140	8.077164	-0.345323	1.850868	-0.032142	-0.071713	0.076838	-71.021910	-83.423153	-166.347800
61412	3157165	8.117034	-0.341323	1.881460	-0.019920	-0.067523	0.075600	-71.139104	-83.416712	-166.232709
61413	3157190	8.148589	-0.371706	1.906660	-0.013635	-0.065865	0.075714	-71.253269	-83.410152	-166.119759
61414	3157215	8.169144	-0.400700	1.933129	-0.011328	-0.066452	0.083280	-71.370044	-83.402493	-166.003467
61415	3157240	8.186940	-0.477716	1.931560	-0.014924	-0.064376	0.084710	-71.485708	-83.394591	-165.889191
61416	3157265	8.221303	-0.535441	1.923425	-0.015478	-0.054546	0.091550	-71.592321	-83.385289	-165.784104
61417	3157290	8.252797	-0.640043	1.939034	-0.017287	-0.041433	0.099580	-71.686653	-83.374282	-165.691640
61418	3157315	8.338124	-0.705990	1.920268	-0.026423	-0.029479	0.106288	-71.769996	-83.361735	-165.611083
61419	3157340	8.411113	-0.755398	1.894919	-0.027306	-0.018729	0.106528	-71.841294	-83.348737	-165.543248
61420	3157365	8.451029	-0.817182	1.865504	-0.020766	-0.012888	0.108480	-71.905322	-83.335203	-165.481788
61421	3157390	8.431766	-0.835017	1.846846	-0.006020	0.003619	0.114352	-71.950010	-83.320129	-165.437671
61422	3157415	8.435964	-0.859592	1.806911	0.010540	0.019525	0.114533	-71.973081	-83.304247	-165.412382
61423	3157440	8.456690	-0.876015	1.773608	0.022110	0.033827	0.110051	-71.976799	-83.288416	-165.405457
61424	3157465	8.444256	-0.897975	1.774885	0.037214	0.045371	0.117517	-71.967808	-83.271056	-165.409151
61425	3157490	8.423661	-0.889674	1.752294	0.043358	0.061703	0.115710	-71.938490	-83.253218	-165.432427
61426	3157515	8.368578	-0.903345	1.737622	0.050582	0.076959	0.118795	-71.891207	-83.234202	-165.472132
61427	3157540	8.334165	-0.886881	1.744270	0.042945	0.090349	0.123926	-71.832583	-83.213964	-165.524981
61428	3157565	8.309393	-0.867606	1.743027	0.039449	0.103407	0.128892	-71.761771	-83.192458	-165.590611
61429	3157590	8.280480	-0.859362	1.749617	0.041059	0.112036	0.133078	-71.682933	-83.169986	-165.664096
61430	3157615	8.250221	-0.840084	1.747040	0.031771	0.121419	0.131410	-71.593916	-83.147224	-165.748483
61431	3157640	8.225414	-0.820929	1.764352	0.037171	0.119896	0.140777	-71.510709	-83.123323	-165.826936
61432	3157665	8.220026	-0.787777	1.735238	0.034088	0.121231	0.148173	-71.429792	-83.098344	-165.903531
61433	3157690	8.196621	-0.785032	1.736547	0.034687	0.126515	0.146712	-71.342902	-83.073308	-165.986060
61436	3157715	8.165056	-0.760136	1.703387	0.041416	0.129293	0.149171	-71.252686	-83.047714	-166.070209
61437	3157740	8.144512	-0.742138	1.670224	0.043546	0.127228	0.148365	-71.165598	-83.022390	-166.151668
61438	3157765	8.139107	-0.728257	1.635730	0.039718	0.132327	0.151058	-71.075060	-82.996450	-166.237160
61439	3157790	8.092403	-0.697870	1.603919	0.039619	0.135624	0.153527	-70.982498	-82.970005	-166.324711
61440	3157815	8.092430	-0.703297	1.587956	0.038528	0.138587	0.158779	-70.888664	-82.942611	-166.412871
61441	3157840	8.069068	-0.704604	1.566667	0.042421	0.141753	0.165404	-70.794893	-82.914236	-166.501246
61442	3157865	8.033332	-0.681146	1.552117	0.041492	0.149092	0.168432	-70.695180	-82.885086	-166.595748
61443	3157890	8.012703	-0.686595	1.534803	0.045907	0.154483	0.166240	-70.588983	-82.855956	-166.696153
61444	3157915	7.981023	-0.720926	1.525364	0.047323	0.162779	0.169352	-70.474819	-82.825902	-166.803489
61445	3157940	7.950783	-0.730437	1.494744	0.042629	0.169060	0.169878	-70.356633	-82.795533	-166.916466
61446	3157965	7.916337	-0.729063	1.500072	0.056675	0.168420	0.171195	-70.238589	-82.764987	-167.027277
61447	3157990	7.868105	-0.722251	1.516022	0.056678	0.177963	0.168264	-70.110303	-82.734343	-167.148421
61448	3158015	7.836412	-0.723640	1.522613	0.068454	0.176831	0.170705	-69.982590	-82.703306	-167.266332
61449	3158040	7.770285	-0.760706	1.509153	0.078337	0.178808	0.175536	-69.855203	-82.671574	-167.383458
61450	3158065	7.737261	-0.767519	1.493192	0.082120	0.176141	0.173154	-69.730188	-82.640262	-167.497654
61451	3158090	7.690489	-0.771564	1.471880	0.089525	0.182316	0.172064	-69.598317	-82.608756	-167.617703
61452	3158115	7.631323	-0.775563	1.447910	0.100483	0.179107	0.172655	-69.468537	-82.577209	-167.733045
61453	3158140	7.610708	-0.772777	1.430652	0.110237	0.172757	0.168236	-69.344140	-82.546628	-167.842581
61454	3158165	7.588713	-0.764467	1.422673	0.113599	0.176372	0.166605	-69.215901	-82.516052	-167.955515
61455	3158190	7.546015	-0.782293	1.411974	0.128643	0.173639	0.161141	-69.087146	-82.486314	-168.066802
61456	3158215	7.482792	-0.776593	1.362795	0.136746	0.164258	0.159118	-68.965901	-82.457207	-168.168273
61457	3158240	7.438762	-0.764185	1.353522	0.152949	0.161406	0.162418	-68.848306	-82.427867	-168.264806
61458	3158265	7.408472	-0.766905	1.348176	0.168796	0.160414	0.157659	-68.728411	-82.399187	-168.361376
61459	3158290	7.371405	-0.766713	1.300297	0.183541	0.158596	0.157200	-68.608852	-82.370637	-168.455482
61460	3158315	7.324693	-0.780267	1.249750	0.198850	0.158681	0.151804	-68.484727	-82.342685	-168.550862
61461	3158340	7.288962	-0.795216	1.208494	0.211394	0.157905	0.156786	-68.363300	-82.314174	-168.642839
61462	3158365	7.258769	-0.799176	1.161945	0.229974	0.159286	0.148809	-68.235522	-82.286625	-168.738546
61463	3158390	7.210616	-0.826538	1.127290	0.244887	0.159068	0.148734	-68.106590	-82.259068	-168.833269
61464	3158415	7.150081	-0.840139	1.092679	0.251237	0.165968	0.144972	-67.968352	-82.231520	-168.935305
61465	3158440	7.148673	-0.890969	1.077859	0.264892	0.166261	0.140445	-67.827930	-82.204615	-169.038744
61466	3158465	7.133507	-0.904736	1.075162	0.283106	0.162765	0.139196	-67.688620	-82.178031	-169.138434
61467	3158490	7.152690	-0.926819	1.097670	0.293063	0.161667	0.131223	-67.546587	-82.152531	-169.239439
61468	3158515	7.162355	-0.941868	1.084356	0.310868	0.156070	0.130415	-67.406827	-82.127316	-169.334383
61469	3158540	7.144454	-0.977583	1.061627	0.327368	0.148419	0.129534	-67.273392	-82.102703	-169.421760
61470	3158565	7.195308	-1.051849	1.058751	0.343618	0.144561	0.129351	-67.141903	-82.078301	-169.504827
61471	3158590	7.185553	-1.104137	1.070536	0.351663	0.133257	0.130884	-67.021218	-82.054302	-169.575828
61472	3158615	7.229511	-1.150973	1.086355	0.367729	0.132124	0.129236	-66.898211	-82.030466	-169.645628
61473	3158640	7.247472	-1.161890	1.063729	0.372317	0.122596	0.125539	-66.783574	-82.007730	-169.707543
61474	3158665	7.276390	-1.175642	1.051760	0.376147	0.114855	0.125705	-66.676188	-81.985394	-169.761584
61475	3158690	7.332850	-1.186617	1.050413	0.363891	0.108276	0.132911	-66.580030	-81.962471	-169.806061
61476	3158715	7.383716	-1.232037	1.059587	0.354253	0.108327	0.138989	-66.487047	-81.938637	-169.847485
61477	3158740	7.449732	-1.241826	1.088836	0.344288	0.102249	0.146151	-66.405395	-81.914301	-169.880153
61478	3158765	7.507454	-1.250242	1.132678	0.326391	0.093555	0.152615	-66.337256	-81.889610	-169.901764
61479	3158790	7.545859	-1.261451	1.187156	0.311805	0.088686	0.158596	-66.278351	-81.864411	-169.916158
61480	3158815	7.595332	-1.258901	1.231031	0.298189	0.089204	0.161663	-66.221367	-81.838676	-169.929316
61481	3158840	7.677815	-1.239916	1.305543	0.284152	0.078847	0.168349	-66.179744	-81.812764	-169.930255
61482	3158865	7.745171	-1.216788	1.374764	0.274067	0.072785	0.176145	-66.148326	-81.786181	-169.922342
61483	3158890	7.786331	-1.210175	1.438587	0.268844	0.066571	0.178649	-66.124352	-81.759631	-169.907664
61484	3158915	7.838604	-1.207526	1.459884	0.262092	0.058173	0.184628	-66.110303	-81.732681	-169.882630
61485	3158940	7.912910	-1.198027	1.494517	0.255549	0.051939	0.181797	-66.102656	-81.706569	-169.853376
61486	3158965	7.974771	-1.174888	1.553109	0.253230	0.055063	0.184764	-66.093651	-81.679887	-169.825826
61487	3158990	8.067005	-1.161241	1.573128	0.247750	0.051883	0.193037	-66.091481	-81.652307	-169.792162
61488	3159015	8.098663	-1.103644	1.619841	0.246862	0.054860	0.191061	-66.084856	-81.624707	-169.761777
61489	3159040	8.194901	-1.097037	1.687701	0.243413	0.057158	0.194021	-66.078822	-81.596692	-169.732640
61490	3159065	8.263794	-1.061333	1.698466	0.241423	0.066729	0.196217	-66.065401	-81.567835	-169.711257
61491	3159090	8.347604	-1.079526	1.767545	0.231420	0.071703	0.198297	-66.049817	-81.538418	-169.693508
61492	3159115	8.406670	-1.068750	1.835412	0.229499	0.086567	0.203472	-66.022407	-81.507350	-169.686585
61493	3159140	8.472588	-1.097882	1.895107	0.231232	0.091212	0.205959	-65.992810	-81.475796	-169.683029
61494	3159165	8.526091	-1.113282	1.968191	0.223000	0.102110	0.210710	-65.956850	-81.442985	-169.687100
61495	3159190	8.618130	-1.141116	2.046548	0.225356	0.112294	0.207554	-65.910667	-81.409991	-169.701168
61496	3159215	8.714405	-1.149570	2.093079	0.230458	0.119774	0.207338	-65.856343	-81.376475	-169.721255
61497	3159240	8.766540	-1.189688	2.150094	0.230151	0.131892	0.217162	-65.796846	-81.341072	-169.748097
61498	3159265	8.832427	-1.232553	2.211153	0.228281	0.143042	0.214221	-65.727311	-81.305394	-169.785367
61499	3159290	8.879199	-1.220317	2.240406	0.229439	0.154701	0.215302	-65.648553	-81.268879	-169.831804
61500	3159315	8.932711	-1.261785	2.298794	0.230520	0.167988	0.218537	-65.559026	-81.231031	-169.887432
61501	3159340	8.965598	-1.275779	2.355921	0.230993	0.179882	0.222401	-65.462670	-81.192075	-169.951459
61502	3159365	8.994342	-1.284237	2.423637	0.237872	0.193353	0.225300	-65.355877	-81.151920	-170.025059
61503	3159390	9.053436	-1.300923	2.463496	0.240693	0.200856	0.226460	-65.243698	-81.111144	-170.103710
61504	3159415	9.107014	-1.299770	2.516667	0.238781	0.211321	0.224665	-65.122143	-81.069829	-170.190499
61505	3159440	9.118002	-1.290206	2.536632	0.246339	0.213166	0.224659	-65.000118	-81.028493	-170.278315
61506	3159465	9.120701	-1.272468	2.564619	0.249027	0.221252	0.226641	-64.872815	-80.986380	-170.371095
61507	3159490	9.128839	-1.291862	2.608391	0.250907	0.233166	0.223854	-64.735512	-80.943868	-170.473740
61508	3159515	9.124694	-1.290506	2.609736	0.247628	0.240909	0.228013	-64.593929	-80.900180	-170.579478
61509	3159540	9.101304	-1.290466	2.603073	0.246193	0.249708	0.234459	-64.450341	-80.855198	-170.689196
61510	3159565	9.098577	-1.254785	2.613800	0.237995	0.263783	0.242248	-64.300919	-80.808295	-170.806028
61511	3159590	9.117750	-1.239825	2.668344	0.234367	0.274028	0.254706	-64.150024	-80.759097	-170.924894
61512	3159615	9.175414	-1.314248	2.693381	0.218965	0.282754	0.259213	-63.996383	-80.708593	-171.046973
61513	3159640	9.196006	-1.337620	2.703944	0.195567	0.295946	0.262448	-63.839734	-80.656918	-171.177336
61514	3159665	9.220735	-1.365217	2.718495	0.174019	0.314882	0.269175	-63.675624	-80.603121	-171.318409
61515	3159690	9.248185	-1.372199	2.753038	0.162728	0.333224	0.267357	-63.500035	-80.548320	-171.472780
61516	3159715	9.257706	-1.365572	2.807519	0.159052	0.352778	0.270101	-63.311723	-80.491699	-171.638692
61517	3159740	9.271332	-1.445326	2.815255	0.165825	0.362673	0.269638	-63.118110	-80.434542	-171.810941
61518	3159765	9.275461	-1.471408	2.807183	0.172062	0.382969	0.271639	-62.911277	-80.375711	-171.995720
61519	3159790	9.311112	-1.553985	2.814913	0.168686	0.394826	0.272872	-62.698929	-80.315835	-172.186616
61520	3159815	9.316647	-1.628039	2.757555	0.189093	0.408606	0.272638	-62.474585	-80.254815	-172.384746
61521	3159840	9.278090	-1.636284	2.754838	0.200833	0.425614	0.277855	-62.241997	-80.192012	-172.591578
61522	3159865	9.246467	-1.640269	2.728236	0.210251	0.441796	0.278740	-61.999434	-80.127869	-172.807204
61523	3159890	9.213409	-1.697944	2.701433	0.222930	0.459519	0.276791	-61.744491	-80.062615	-173.033596
61524	3159915	9.188584	-1.745990	2.682671	0.237371	0.475614	0.268710	-61.474729	-79.996955	-173.270894
61525	3159940	9.167921	-1.761103	2.671955	0.244699	0.489502	0.266214	-61.197707	-79.930609	-173.516633
61526	3159965	9.155522	-1.806389	2.647907	0.246039	0.507124	0.264628	-60.910951	-79.863031	-173.772115
61527	3159990	9.125258	-1.825565	2.630542	0.256260	0.516038	0.255056	-60.616405	-79.795799	-174.034079
61528	3160015	9.106003	-1.841997	2.605202	0.248182	0.520180	0.257717	-60.323579	-79.727546	-174.293371
61529	3160040	9.113048	-1.818399	2.557472	0.248398	0.526811	0.252512	-60.029077	-79.659392	-174.556547
61530	3160065	9.122732	-1.796420	2.552217	0.250004	0.526685	0.260708	-59.741297	-79.589993	-174.812713
61531	3160090	9.124296	-1.771424	2.489862	0.247136	0.525032	0.265192	-59.460389	-79.519932	-175.062365
61532	3160115	9.102245	-1.833227	2.465730	0.238936	0.520189	0.273816	-59.189514	-79.448774	-175.300850
61533	3160140	9.080127	-1.906070	2.452163	0.227793	0.517023	0.283183	-58.930652	-79.376669	-175.531009
61534	3160165	9.022317	-1.929325	2.425480	0.210598	0.507230	0.281593	-58.683254	-79.305299	-175.752063
61535	3160190	8.988023	-1.892072	2.391014	0.191963	0.503096	0.285444	-58.445787	-79.233594	-175.965778
61537	3160215	8.975558	-1.948409	2.388193	0.173567	0.492114	0.289303	-58.221199	-79.161905	-176.166849
61539	3160240	8.908088	-1.938826	2.393471	0.147606	0.479457	0.291711	-58.013271	-79.090918	-176.357057
61540	3160265	8.843336	-1.953932	2.392061	0.116050	0.471070	0.296791	-57.819654	-79.019828	-176.537337
61541	3160290	8.803424	-1.957949	2.374759	0.089426	0.453690	0.287458	-57.639343	-78.951086	-176.707990
61542	3160315	8.786859	-1.975891	2.387952	0.070225	0.441045	0.283006	-57.468751	-78.883565	-176.869271
61543	3160340	8.733261	-1.919404	2.370873	0.054061	0.420806	0.275914	-57.313250	-78.818563	-177.019877
61544	3160365	8.691927	-1.868663	2.404221	0.033240	0.412081	0.268461	-57.164858	-78.755058	-177.166311
61545	3160390	8.696110	-1.820553	2.417659	0.021550	0.394563	0.267559	-57.029963	-78.692954	-177.300721
61546	3160415	8.693472	-1.801184	2.381834	0.012322	0.380453	0.264135	-56.903738	-78.632107	-177.425306
61547	3160440	8.626151	-1.748775	2.348777	-0.008008	0.364380	0.269632	-56.794622	-78.572005	-177.537796
61548	3160465	8.608303	-1.692411	2.358222	-0.022891	0.350088	0.266482	-56.695987	-78.513363	-177.641789
61549	3160490	8.514742	-1.586600	2.381152	-0.039434	0.332092	0.263569	-56.610155	-78.456454	-177.735157
61550	3160515	8.498288	-1.486327	2.412012	-0.059032	0.322516	0.262852	-56.532097	-78.400157	-177.821058
61551	3160540	8.411483	-1.458914	2.446592	-0.080423	0.308158	0.259519	-56.466123	-78.345574	-177.900183
61552	3160565	8.342620	-1.460305	2.457148	-0.105877	0.282012	0.249761	-56.415783	-78.294209	-177.967082
61553	3160590	8.284859	-1.432684	2.426687	-0.124803	0.256056	0.237070	-56.378696	-78.246406	-178.023225
61554	3160615	8.259080	-1.351112	2.320655	-0.133915	0.246637	0.227360	-56.343767	-78.200294	-178.076027
61555	3160640	8.250941	-1.372882	2.256805	-0.139026	0.239840	0.213563	-56.309754	-78.156567	-178.131131
61556	3160665	8.193258	-1.343824	2.209040	-0.147675	0.237456	0.204170	-56.275104	-78.114142	-178.188159
61557	3160690	8.118997	-1.299723	2.193195	-0.162575	0.235659	0.202401	-56.243257	-78.072064	-178.244514
61558	3160715	8.065483	-1.245922	2.148147	-0.179584	0.227644	0.195737	-56.214934	-78.031201	-178.297227
61559	3160740	7.987179	-1.179716	2.099185	-0.196749	0.224063	0.186788	-56.189207	-77.991894	-178.352346
61560	3160765	7.868864	-1.141072	2.083260	-0.223374	0.220172	0.173698	-56.164826	-77.954449	-178.409995
61561	3160790	7.850968	-1.117722	2.089999	-0.234784	0.213589	0.160803	-56.141179	-77.919059	-178.468574
61562	3160815	7.779323	-1.108156	2.104602	-0.255834	0.200444	0.140852	-56.119417	-77.886873	-178.525718
61563	3160840	7.652649	-1.108079	2.096555	-0.259617	0.188717	0.123189	-56.099546	-77.857933	-178.584086
61564	3160865	7.553723	-1.096742	2.007503	-0.256556	0.173664	0.102164	-56.079922	-77.832690	-178.641759
61565	3160890	7.527651	-1.110301	1.967585	-0.241499	0.161001	0.087388	-56.059795	-77.810212	-178.697745
61566	3160915	7.510582	-0.859284	1.765117	-0.227465	0.148185	0.086872	-56.043410	-77.788602	-178.745198
61567	3160940	7.504186	-0.729540	1.643324	-0.183944	0.146894	0.097935	-56.026938	-77.765992	-178.789018
61568	3160965	7.580366	-0.625992	1.533424	-0.147583	0.148562	0.113004	-56.010019	-77.741457	-178.827970
61569	3160990	7.646796	-0.603569	1.415282	-0.097013	0.149746	0.119300	-55.987647	-77.716076	-178.865094
61570	3161015	7.769662	-0.659358	1.262372	-0.041285	0.154357	0.131923	-55.958311	-77.688610	-178.898477
61571	3161040	7.943374	-0.720857	1.150653	0.014186	0.164758	0.134516	-55.917733	-77.660211	-178.937940
61572	3161065	8.198400	-0.785010	1.012417	0.075625	0.169805	0.138371	-55.867231	-77.630943	-178.978557
61573	3161090	8.414817	-0.819086	0.912778	0.125496	0.181474	0.135911	-55.802618	-77.601019	-179.026313
61574	3161115	8.611878	-0.890333	0.824947	0.173931	0.184797	0.142957	-55.730901	-77.569769	-179.071522
61575	3161140	8.847488	-0.958790	0.738474	0.208990	0.189881	0.146921	-55.654426	-77.537839	-179.119189
61576	3161165	9.128519	-1.079464	0.631963	0.247009	0.191653	0.155988	-55.575194	-77.504679	-179.164107
61577	3161190	9.482429	-1.123484	0.622701	0.290859	0.190824	0.146459	-55.486977	-77.472697	-179.211802
61578	3161215	9.823912	-1.170324	0.613415	0.340581	0.175913	0.140530	-55.396504	-77.442403	-179.251799
61579	3161240	10.183539	-1.196152	0.531145	0.388348	0.156824	0.136755	-55.309422	-77.414301	-179.284034
61580	3161265	10.581729	-1.315340	0.388828	0.448951	0.135542	0.125217	-55.220917	-77.389284	-179.308837
61581	3161290	10.992382	-1.442645	0.214561	0.510821	0.111021	0.106907	-55.129957	-77.368418	-179.327075
61582	3161315	11.470820	-1.558538	-0.080486	0.588673	0.092450	0.077817	-55.025928	-77.352282	-179.344596
61583	3161340	12.031832	-1.681444	-0.351574	0.677162	0.078453	0.063521	-54.912650	-77.339168	-179.361290
61584	3161365	12.482324	-1.940644	-0.566073	0.764993	0.075068	0.045402	-54.782046	-77.328447	-179.382849
61585	3161390	12.806341	-2.078725	-0.793538	0.854689	0.084145	0.031082	-54.628743	-77.318637	-179.414505
61586	3161415	13.077877	-2.181376	-0.949160	0.937310	0.101297	0.009848	-54.445884	-77.309665	-179.461743
61587	3161440	13.265407	-2.185173	-1.043358	1.014893	0.114189	-0.006278	-54.240582	-77.301652	-179.523181
61588	3161465	13.448944	-2.102352	-1.142598	1.079665	0.136887	-0.026003	-54.007144	-77.293970	-179.603952
61589	3161490	13.560604	-2.072008	-1.171728	1.136627	0.162795	-0.029187	-53.751266	-77.284394	-179.699367
61590	3161515	13.730257	-1.971516	-1.212428	1.189717	0.188801	-0.030558	-53.473184	-77.272483	-179.807291
61591	3161540	13.814360	-1.867192	-1.194810	1.233879	0.209287	-0.021532	-53.183231	-77.257849	-179.923366
61592	3161565	13.860940	-1.782467	-1.047063	1.260539	0.222936	-0.009853	-52.887481	-77.240571	179.958522
61593	3161590	13.868814	-1.787155	-0.890364	1.280606	0.216627	-0.003226	-52.595121	-77.222952	179.846827
61594	3161615	13.868461	-1.823252	-0.764299	1.288437	0.200926	-0.013681	-52.304998	-77.207590	179.740920
61595	3161640	13.854376	-1.840201	-0.647409	1.277744	0.176457	-0.045458	-52.017763	-77.198028	179.634046
61596	3161665	13.810181	-1.781299	-0.560913	1.268882	0.145474	-0.084896	-51.732075	-77.195533	179.527454
61597	3161690	13.803104	-1.726741	-0.453068	1.265085	0.104834	-0.139573	-51.445627	-77.202673	179.419526
61598	3161715	13.855486	-1.556537	-0.374088	1.274698	0.074980	-0.171053	-51.158868	-77.215720	179.314963
61599	3161740	13.883083	-1.365800	-0.281708	1.287020	0.042976	-0.195913	-50.876735	-77.234468	179.214692
61600	3161765	13.866263	-1.251013	-0.099376	1.297655	0.004259	-0.200941	-50.609476	-77.257177	179.131243
61601	3161790	13.852111	-1.162401	0.106845	1.317015	-0.043041	-0.194915	-50.364402	-77.283449	179.073388
61602	3161815	13.829869	-1.085862	0.234590	1.335538	-0.097969	-0.188890	-50.144403	-77.313879	179.046187
61603	3161840	13.817288	-1.132786	0.282213	1.344968	-0.156543	-0.171965	-49.958996	-77.347972	179.053605
61604	3161865	13.947799	-1.358322	0.276215	1.363198	-0.213562	-0.157301	-49.804452	-77.385726	179.095327
61605	3161890	14.166513	-1.699035	0.183521	1.381328	-0.263597	-0.146325	-49.676054	-77.426934	179.166495
61606	3161915	14.450035	-2.047888	0.051004	1.415502	-0.308694	-0.149432	-49.562478	-77.472552	179.260024
61607	3161940	14.847728	-2.446371	-0.053648	1.472359	-0.346737	-0.161927	-49.455116	-77.523256	179.366069
61608	3161965	15.189315	-2.712655	-0.229658	1.546204	-0.380320	-0.169225	-49.350668	-77.577925	179.485909
61609	3161990	15.551383	-3.075200	-0.387455	1.637332	-0.402509	-0.174688	-49.241892	-77.635309	179.614656
61610	3162015	15.914635	-3.502516	-0.506967	1.736683	-0.430923	-0.185666	-49.127466	-77.696458	179.754203
61611	3162040	16.219998	-3.844883	-0.559698	1.824695	-0.459128	-0.195719	-49.011196	-77.761540	179.902686
61612	3162065	16.482593	-4.124161	-0.544538	1.900069	-0.487893	-0.210187	-48.892412	-77.830955	-179.940394
61613	3162090	16.615741	-4.334842	-0.488023	1.949882	-0.522991	-0.230058	-48.775659	-77.905890	-179.774141
61614	3162115	16.639921	-4.522445	-0.366480	1.964913	-0.561070	-0.247172	-48.667909	-77.986201	-179.594677
61615	3162140	16.637866	-4.662032	-0.162352	1.923373	-0.606503	-0.269103	-48.580818	-78.073367	-179.402084
61616	3162165	16.530118	-4.539082	0.030694	1.856262	-0.659453	-0.278284	-48.527192	-78.166588	-179.185181
61617	3162190	16.287591	-4.352626	0.194505	1.739538	-0.715188	-0.273279	-48.522778	-78.264583	-178.935162
61618	3162215	16.038181	-4.100337	0.406537	1.597261	-0.777604	-0.252350	-48.582312	-78.366093	-178.639067
61619	3162240	15.739290	-3.740800	0.622637	1.434983	-0.837951	-0.219225	-48.716327	-78.469781	-178.292455
61620	3162265	15.455534	-3.399206	0.843015	1.226438	-0.900233	-0.166276	-48.942628	-78.573415	-177.882283
61621	3162290	15.154957	-3.077231	1.173177	1.002323	-0.969454	-0.101224	-49.274858	-78.676096	-177.396955
61622	3162315	14.687300	-2.807309	1.119481	0.757128	-1.037425	-0.042602	-49.713788	-78.777944	-176.837225
61623	3162340	14.230728	-2.609964	0.971199	0.517363	-1.051204	0.014044	-50.231214	-78.874059	-176.234270
61624	3162365	13.720126	-2.529640	0.859713	0.311554	-1.010458	0.064640	-50.788205	-78.959770	-175.621226
61625	3162390	13.300324	-2.514117	0.781262	0.125180	-0.924972	0.107038	-51.351235	-79.031905	-175.029391
61626	3162415	13.046911	-2.531851	0.767852	-0.025086	-0.810094	0.149836	-51.894971	-79.087806	-174.477730
61627	3162440	12.907326	-2.612109	0.905770	-0.146006	-0.671323	0.189231	-52.398333	-79.126214	-173.986437
61628	3162465	12.857125	-2.747524	1.079338	-0.235894	-0.537874	0.225642	-52.854937	-79.148095	-173.555915
61629	3162490	12.765287	-2.947886	1.345686	-0.286624	-0.413977	0.259964	-53.261629	-79.154768	-173.183633
61630	3162515	12.714546	-3.184308	1.676962	-0.310557	-0.323744	0.282283	-53.626932	-79.150588	-172.855510
61631	3162540	12.704167	-3.297960	1.919705	-0.305826	-0.251709	0.296724	-53.954971	-79.138386	-172.566105
61632	3162565	12.726769	-3.470693	2.151680	-0.282949	-0.192691	0.306053	-54.247396	-79.119849	-172.309614
61633	3162590	12.753963	-3.527513	2.251138	-0.241046	-0.139691	0.308627	-54.501904	-79.096360	-172.085605
61634	3162615	12.807019	-3.767250	2.387250	-0.190590	-0.089172	0.308350	-54.716612	-79.068419	-171.893316
61635	3162640	12.922152	-3.967119	2.495563	-0.127389	-0.042105	0.293146	-54.887137	-79.038370	-171.738223
61636	3162665	13.041460	-4.143534	2.601369	-0.066717	0.001921	0.275385	-55.013982	-79.006706	-171.618756
61637	3162690	13.159392	-4.303521	2.700584	0.004758	0.042550	0.254229	-55.096499	-78.974151	-171.534004
61638	3162715	13.207296	-4.402803	2.770637	0.067475	0.072749	0.232123	-55.141307	-78.941571	-171.477126
61641	3162740	13.266034	-4.577841	2.868383	0.132786	0.094691	0.213531	-55.156380	-78.909505	-171.442393
61642	3162765	13.303027	-4.668722	2.881377	0.171337	0.104380	0.194608	-55.152125	-78.878871	-171.421726
61643	3162790	13.290621	-4.712658	2.870544	0.207153	0.110774	0.177379	-55.131734	-78.849739	-171.412273
61644	3162815	13.267489	-4.679291	2.764369	0.221623	0.107747	0.165379	-55.105325	-78.822120	-171.405516
61645	3162840	13.192178	-4.601766	2.640980	0.230965	0.110617	0.153963	-55.072004	-78.795754	-171.405766
61646	3162865	13.046855	-4.452533	2.456700	0.223671	0.111489	0.132398	-55.030375	-78.771847	-171.415550
61647	3162890	12.868759	-4.182068	2.231690	0.214672	0.122367	0.116707	-54.977246	-78.748886	-171.438375
61648	3162915	12.616326	-3.873210	2.018610	0.197446	0.145192	0.116161	-54.912313	-78.723950	-171.474491
61649	3162940	12.354230	-3.510794	1.846950	0.182498	0.166515	0.117731	-54.838665	-78.697221	-171.522943
61650	3162965	12.033959	-3.181827	1.790702	0.170851	0.187822	0.130793	-54.759913	-78.667192	-171.578306
61651	3162990	11.718942	-2.980867	1.767259	0.153662	0.203346	0.133613	-54.676105	-78.635533	-171.641343
61652	3163015	11.424555	-2.822507	1.729039	0.122276	0.217934	0.136635	-54.589238	-78.602129	-171.710872
61653	3163040	11.165957	-2.694388	1.682774	0.093013	0.219934	0.132397	-54.504864	-78.569197	-171.783364
61654	3163065	10.903197	-2.584092	1.632500	0.061606	0.207144	0.138931	-54.435464	-78.536548	-171.845175
61655	3163090	10.614265	-2.424441	1.616893	0.025573	0.193419	0.138518	-54.379279	-78.505079	-171.898777
61656	3163115	10.394207	-2.326518	1.551935	-0.016622	0.167701	0.139213	-54.343660	-78.475498	-171.936362
61657	3163140	10.152112	-2.268422	1.472243	-0.053959	0.136679	0.132652	-54.329278	-78.449436	-171.958937
61658	3163165	9.876921	-2.211707	1.399222	-0.101839	0.096440	0.140983	-54.348088	-78.425765	-171.954633
61659	3163190	9.685745	-2.214050	1.302054	-0.152381	0.062096	0.141430	-54.393753	-78.404908	-171.930307
61660	3163215	9.484977	-2.217627	1.178373	-0.198820	0.009881	0.132154	-54.471070	-78.389305	-171.879278
61661	3163240	9.296523	-2.233731	1.079892	-0.251792	-0.031994	0.125034	-54.577397	-78.378169	-171.807556
61662	3163265	9.117700	-2.259423	0.977409	-0.292291	-0.081888	0.121449	-54.716242	-78.371556	-171.708554
61663	3163290	8.926521	-2.285110	0.857590	-0.342649	-0.132516	0.119184	-54.890061	-78.369333	-171.581209
61664	3163315	8.732577	-2.287450	0.757856	-0.385661	-0.178488	0.113037	-55.093050	-78.371353	-171.429235
61665	3163340	8.578522	-2.298080	0.672683	-0.425336	-0.226012	0.113706	-55.329958	-78.377233	-171.249573
61666	3163365	8.391370	-2.343122	0.591377	-0.453690	-0.267991	0.114274	-55.595485	-78.386296	-171.044846
61667	3163390	8.176715	-2.401826	0.482103	-0.470099	-0.310160	0.104207	-55.884125	-78.399752	-170.818929
61668	3163415	7.977161	-2.426248	0.408848	-0.496368	-0.357544	0.107010	-56.205012	-78.416252	-170.562873
61669	3163440	7.798226	-2.457605	0.347555	-0.509308	-0.388026	0.099821	-56.544283	-78.435903	-170.291035
61670	3163465	7.620576	-2.530309	0.300700	-0.518636	-0.423464	0.095323	-56.905005	-78.458544	-169.998686
61671	3163490	7.411400	-2.524544	0.243433	-0.530092	-0.451736	0.086623	-57.282041	-78.484054	-169.691388
61672	3163515	7.221445	-2.506466	0.204879	-0.539813	-0.478268	0.082879	-57.675662	-78.511472	-169.367618
61673	3163540	7.097695	-2.434802	0.178443	-0.549324	-0.496355	0.075261	-58.081030	-78.540915	-169.034281
61674	3163565	6.926941	-2.430636	0.167744	-0.561249	-0.512290	0.065978	-58.496169	-78.572214	-168.692752
61675	3163590	6.727425	-2.338381	0.151979	-0.571413	-0.526638	0.056383	-58.920025	-78.605258	-168.343856
61676	3163615	6.574552	-2.280707	0.185329	-0.577396	-0.541712	0.049494	-59.353009	-78.639565	-167.985645
61677	3163640	6.418920	-2.290277	0.182559	-0.578641	-0.555477	0.040925	-59.794647	-78.675563	-167.619752
61678	3163665	6.325454	-2.177446	0.173564	-0.581615	-0.569320	0.031009	-60.244342	-78.713222	-167.246125
61679	3163690	6.198799	-2.133488	0.182947	-0.577887	-0.578520	0.024065	-60.699551	-78.751816	-166.866379
61680	3163715	6.090199	-2.020610	0.172630	-0.574663	-0.587972	0.009255	-61.157262	-78.792155	-166.482814
61681	3163740	5.974593	-1.968314	0.166086	-0.561367	-0.595188	-0.000538	-61.617989	-78.833796	-166.095138
61682	3163765	5.885290	-1.874675	0.138440	-0.544562	-0.602457	-0.009653	-62.081009	-78.876471	-165.702727
61683	3163790	5.780813	-1.785176	0.114784	-0.538015	-0.605466	-0.025152	-62.543068	-78.920698	-165.310399
61684	3163815	5.738088	-1.764616	0.138746	-0.521869	-0.602579	-0.039169	-62.998927	-78.965742	-164.921294
61685	3163840	5.640471	-1.684746	0.121668	-0.504689	-0.603703	-0.059779	-63.450397	-79.013075	-164.535012
61686	3163865	5.564837	-1.611846	0.117895	-0.490138	-0.601342	-0.075021	-63.896822	-79.061636	-164.151808
61687	3163890	5.504478	-1.493458	0.094332	-0.470562	-0.591996	-0.092632	-64.332148	-79.111319	-163.777116
61688	3163915	5.438658	-1.410689	0.028158	-0.443642	-0.583568	-0.103149	-64.757508	-79.161139	-163.407954
61689	3163940	5.427919	-1.314197	-0.032652	-0.412020	-0.568877	-0.109637	-65.170623	-79.210570	-163.047461
61690	3163965	5.371627	-1.253561	-0.061718	-0.390300	-0.550313	-0.126612	-65.566084	-79.260625	-162.701832
61691	3163990	5.331861	-1.186024	-0.098707	-0.363290	-0.532891	-0.130539	-65.947825	-79.309729	-162.366285
61692	3164015	5.272824	-1.136342	-0.138431	-0.330061	-0.510271	-0.128520	-66.312174	-79.356683	-162.042928
61693	3164040	5.281133	-1.126647	-0.154351	-0.298165	-0.485139	-0.142244	-66.653881	-79.403801	-161.738726
61694	3164065	5.257680	-1.137689	-0.145094	-0.273162	-0.456597	-0.150763	-66.972100	-79.450106	-161.454822
61695	3164090	5.221948	-1.101891	-0.148964	-0.237528	-0.427428	-0.167188	-67.262154	-79.496678	-161.194416
61696	3164115	5.224736	-1.097723	-0.162250	-0.203060	-0.399095	-0.172269	-67.527124	-79.541966	-160.953852
61697	3164140	5.255027	-1.081262	-0.150222	-0.173035	-0.368178	-0.192356	-67.762493	-79.588204	-160.739734
61698	3164165	5.201327	-1.082627	-0.154245	-0.141926	-0.348134	-0.211599	-67.975190	-79.635761	-160.544168
61699	3164190	5.210939	-1.077187	-0.140923	-0.103402	-0.322686	-0.225082	-68.161698	-79.683625	-160.369644
61700	3164215	5.210941	-1.051085	-0.127558	-0.069790	-0.299493	-0.243673	-68.321830	-79.732474	-160.216406
61701	3164240	5.217594	-1.114567	-0.073289	-0.036938	-0.281727	-0.257827	-68.462240	-79.782361	-160.079107
61702	3164265	5.220320	-1.121467	-0.062691	0.002213	-0.261587	-0.274976	-68.578410	-79.833422	-159.960759
61703	3164290	5.210695	-1.070674	-0.037289	0.038968	-0.246938	-0.300200	-68.672164	-79.887045	-159.859854
61704	3164315	5.199805	-1.007378	-0.050379	0.065370	-0.228305	-0.320621	-68.742401	-79.942237	-159.778386
61705	3164340	5.233023	-0.942623	-0.084667	0.092170	-0.213318	-0.324990	-68.797758	-79.997380	-159.708768
61706	3164365	5.275525	-1.027976	-0.065022	0.106584	-0.203234	-0.333318	-68.841603	-80.053104	-159.648757
61707	3164390	5.325036	-1.077522	-0.053204	0.122909	-0.188977	-0.348549	-68.868255	-80.110119	-159.603835
61708	3164415	5.356832	-1.040293	-0.082278	0.136378	-0.181367	-0.367792	-68.881024	-80.169149	-159.570453
61709	3164440	5.387265	-1.001677	-0.115358	0.148945	-0.172813	-0.371823	-68.885194	-80.228437	-159.544578
61710	3164465	5.443698	-1.023689	-0.115393	0.154023	-0.169000	-0.381298	-68.882986	-80.288793	-159.524441
61711	3164490	5.446499	-1.023615	-0.128679	0.168534	-0.161959	-0.391781	-68.870092	-80.350188	-159.513038
61712	3164515	5.472698	-1.013979	-0.140594	0.179875	-0.162163	-0.399871	-68.852477	-80.412513	-159.504205
61713	3164540	5.496259	-0.958875	-0.166964	0.186783	-0.147966	-0.399068	-68.823532	-80.474159	-159.506434
61714	3164565	5.505937	-0.925879	-0.166869	0.183553	-0.138316	-0.399861	-68.786873	-80.535410	-159.516952
61715	3164590	5.532136	-0.940929	-0.186809	0.187601	-0.131370	-0.397106	-68.744592	-80.595932	-159.532579
61716	3164615	5.577666	-0.928458	-0.214663	0.175920	-0.120398	-0.391941	-68.695578	-80.655032	-159.556178
61717	3164640	5.639667	-0.943510	-0.234598	0.164327	-0.110435	-0.385883	-68.642345	-80.712961	-159.586277
61718	3164665	5.672737	-0.948974	-0.247891	0.151943	-0.096296	-0.382885	-68.579732	-80.769747	-159.627672
61719	3164690	5.737490	-0.995614	-0.281216	0.128102	-0.082242	-0.377563	-68.510032	-80.825079	-159.679699
61720	3164715	5.788349	-1.031448	-0.265364	0.122340	-0.069371	-0.376919	-68.429190	-80.879478	-159.743326
61721	3164740	5.848913	-1.067189	-0.273402	0.109148	-0.056063	-0.365739	-68.342743	-80.931831	-159.815047
61722	3164765	5.941208	-1.074074	-0.285341	0.102808	-0.047775	-0.359955	-68.251276	-80.982958	-159.892761
61723	3164790	6.034794	-1.108473	-0.280076	0.096852	-0.035195	-0.345929	-68.153839	-81.031530	-159.977372
61724	3164815	6.158810	-1.134474	-0.322617	0.091746	-0.016212	-0.331452	-68.044266	-81.076980	-160.074521
61725	3164840	6.307482	-1.215565	-0.348040	0.084345	-0.000750	-0.316860	-67.927338	-81.119791	-160.180653
61726	3164865	6.479746	-1.249717	-0.413146	0.085169	0.010495	-0.301509	-67.804963	-81.159925	-160.292165
61727	3164890	6.613385	-1.321041	-0.477095	0.076777	0.033437	-0.283256	-67.669510	-81.196356	-160.418118
61728	3164915	6.729138	-1.353870	-0.522302	0.071637	0.057301	-0.263079	-67.519674	-81.228602	-160.558932
61729	3164940	6.822851	-1.403215	-0.579567	0.064035	0.086649	-0.244191	-67.352118	-81.256838	-160.719191
61730	3164965	6.916654	-1.409857	-0.643272	0.053309	0.113817	-0.221650	-67.169816	-81.280518	-160.895911
61731	3164990	6.999340	-1.428998	-0.676511	0.028674	0.144202	-0.202963	-66.970733	-81.299947	-161.093169
61732	3165015	7.076438	-1.457877	-0.688533	0.001191	0.178547	-0.181255	-66.752471	-81.314313	-161.313442
61733	3165040	7.139830	-1.437248	-0.685790	-0.023335	0.204112	-0.159965	-66.523615	-81.324460	-161.548338
61734	3165065	7.157756	-1.453686	-0.709736	-0.058883	0.229904	-0.137304	-66.285691	-81.330008	-161.797553
61735	3165090	7.201822	-1.468776	-0.712430	-0.092568	0.263272	-0.112860	-66.032965	-81.330261	-162.066620
61736	3165115	7.204456	-1.511506	-0.689981	-0.132279	0.286192	-0.090104	-65.774453	-81.325854	-162.347003
61737	3165140	7.161625	-1.541906	-0.647587	-0.186445	0.307760	-0.069110	-65.514333	-81.317406	-162.637158
61738	3165165	7.178069	-1.525565	-0.609012	-0.236543	0.325775	-0.042051	-65.257217	-81.304161	-162.931542
61739	3165190	7.155820	-1.517658	-0.515988	-0.295676	0.337680	-0.018111	-65.008788	-81.286892	-163.225719
61741	3165215	7.112826	-1.630622	-0.461904	-0.355187	0.345176	-0.001654	-64.769641	-81.266678	-163.518920
61743	3165240	7.074219	-1.593638	-0.419294	-0.416134	0.353411	0.012627	-64.539782	-81.244094	-163.811797
61744	3165265	7.043701	-1.593968	-0.334279	-0.487056	0.364953	0.028996	-64.318362	-81.218507	-164.106434
61745	3165290	7.002087	-1.642460	-0.234806	-0.537470	0.370605	0.046796	-64.108152	-81.190103	-164.397056
61746	3165315	6.965882	-1.669107	-0.095428	-0.598046	0.370388	0.064266	-63.915012	-81.159138	-164.679043
61747	3165340	6.947756	-1.626879	0.020283	-0.656365	0.362873	0.077832	-63.744040	-81.126935	-164.947237
61748	3165365	6.952981	-1.609499	0.145268	-0.702043	0.353004	0.096633	-63.596923	-81.092831	-165.197933
61749	3165390	6.938865	-1.633342	0.271385	-0.756620	0.331140	0.116460	-63.485007	-81.057493	-165.420934
61750	3165415	6.954987	-1.695739	0.397415	-0.800792	0.304279	0.136557	-63.410237	-81.021070	-165.612634
61751	3165440	6.971291	-1.718019	0.475740	-0.836994	0.273110	0.156148	-63.375233	-80.984282	-165.769465
61752	3165465	6.972403	-1.699209	0.594064	-0.868021	0.245190	0.174956	-63.375470	-80.946871	-165.895130
61753	3165490	6.992701	-1.761519	0.704162	-0.885557	0.216623	0.191020	-63.408040	-80.909241	-165.990608
61754	3165515	6.970274	-1.841694	0.818167	-0.885198	0.188924	0.206579	-63.468705	-80.871227	-166.057493
61755	3165540	6.998846	-1.917707	0.912263	-0.878617	0.164434	0.219086	-63.553274	-80.833364	-166.099316
61756	3165565	7.077075	-1.988109	0.977183	-0.854887	0.137551	0.227037	-63.658690	-80.796204	-166.116582
61757	3165590	7.137437	-2.042010	1.046154	-0.817150	0.116320	0.229825	-63.776208	-80.760038	-166.116112
61758	3165615	7.283083	-2.148217	1.118951	-0.785129	0.100294	0.237459	-63.903861	-80.723721	-166.100652
61759	3165640	7.380591	-2.215870	1.185225	-0.746365	0.091256	0.242724	-64.034931	-80.687470	-166.076177
61760	3165665	7.515346	-2.250500	1.248981	-0.711623	0.078565	0.247265	-64.172095	-80.651419	-166.040480
61761	3165690	7.647353	-2.285157	1.314070	-0.675905	0.071016	0.249648	-64.310283	-80.615516	-165.998556
61762	3165715	7.877267	-2.277114	1.344783	-0.640473	0.071275	0.263642	-64.447341	-80.577586	-165.952569
61763	3165740	8.063033	-2.335015	1.372611	-0.620794	0.077216	0.280672	-64.582940	-80.537258	-165.905259
61764	3165765	8.177008	-2.423333	1.461439	-0.604048	0.098214	0.274953	-64.697039	-80.496365	-165.877308
61765	3165790	8.277420	-2.459242	1.482633	-0.589302	0.120500	0.269602	-64.789309	-80.454795	-165.869347
61766	3165815	8.294077	-2.461764	1.424198	-0.571324	0.160028	0.259686	-64.844265	-80.411904	-165.896567
61767	3165840	8.266662	-2.402577	1.405814	-0.562491	0.217806	0.266302	-64.856473	-80.364836	-165.965910
61768	3165865	8.188064	-2.395850	1.452298	-0.544615	0.286198	0.270250	-64.815873	-80.313088	-166.086234
61769	3165890	8.081830	-2.381010	1.542609	-0.516933	0.346653	0.278533	-64.729514	-80.256553	-166.248979
61770	3165915	8.029275	-2.381346	1.627630	-0.488089	0.401078	0.277381	-64.598914	-80.196578	-166.452414
61771	3165940	8.001571	-2.354136	1.714051	-0.454767	0.443471	0.283761	-64.436741	-80.133278	-166.683125
61772	3165965	7.935489	-2.308819	1.726104	-0.426234	0.482038	0.282615	-64.244175	-80.067614	-166.940584
61773	3165990	7.956057	-2.308944	1.765956	-0.394760	0.507096	0.292742	-64.035376	-79.998923	-167.210002
61774	3166015	8.009731	-2.335092	1.765883	-0.366624	0.524585	0.292763	-63.812801	-79.928743	-167.489329
61775	3166040	8.067535	-2.335145	1.784497	-0.332837	0.531115	0.291885	-63.584244	-79.858281	-167.769923
61776	3166065	8.145975	-2.384667	1.779063	-0.303654	0.529616	0.280133	-63.351902	-79.789224	-168.050176
61777	3166090	8.201177	-2.361157	1.752594	-0.269626	0.523697	0.268294	-63.118081	-79.721862	-168.327038
61778	3166115	8.239854	-2.286915	1.750175	-0.235660	0.513586	0.262295	-62.887296	-79.655505	-168.595878
61779	3166140	8.266075	-2.230556	1.758358	-0.202441	0.489807	0.253570	-62.668639	-79.591848	-168.847658
61780	3166165	8.270382	-2.105417	1.764050	-0.156282	0.466016	0.244822	-62.459458	-79.530705	-169.083129
61781	3166190	8.234766	-2.024122	1.723153	-0.130573	0.439693	0.240411	-62.265554	-79.471720	-169.299363
61782	3166215	8.160776	-1.908329	1.643758	-0.110579	0.424202	0.237410	-62.080148	-79.413797	-169.504015
61783	3166240	8.167897	-1.825613	1.593559	-0.097007	0.409158	0.237402	-61.905370	-79.356994	-169.695980
61784	3166265	8.212285	-1.756540	1.504782	-0.079317	0.398684	0.243582	-61.739222	-79.300015	-169.876620
61785	3166290	8.270464	-1.707981	1.400023	-0.068456	0.397997	0.253439	-61.577350	-79.241744	-170.051360
61786	3166315	8.363066	-1.674541	1.279319	-0.059587	0.402473	0.249958	-61.411496	-79.183284	-170.228813
61787	3166340	8.581099	-1.602578	1.149440	-0.059968	0.415733	0.254776	-61.240924	-79.123438	-170.411240
61788	3166365	8.874808	-1.552667	1.026225	-0.056647	0.434290	0.270851	-61.065534	-79.060189	-170.598128
61789	3166390	9.169811	-1.548199	0.918776	-0.054714	0.464217	0.274090	-60.873849	-78.994342	-170.801373
61790	3166415	9.481333	-1.528636	0.815363	-0.043890	0.485426	0.292693	-60.675790	-78.924325	-171.009495
61791	3166440	9.836923	-1.484353	0.733388	-0.032279	0.508541	0.310291	-60.470607	-78.850576	-171.223318
61792	3166465	10.115416	-1.400249	0.660716	-0.021598	0.529850	0.327055	-60.259294	-78.773081	-171.441885
61793	3166490	10.516384	-1.404137	0.579869	-0.014821	0.551869	0.343794	-60.042275	-78.691778	-171.665341
61794	3166515	10.961288	-1.448035	0.528142	-0.013608	0.570092	0.358205	-59.821895	-78.606989	-171.892032
61795	3166540	11.265760	-1.406734	0.503251	-0.012240	0.590475	0.372236	-59.597493	-78.519046	-172.122776
61796	3166565	11.591144	-1.293710	0.416131	-0.012550	0.608246	0.378639	-59.368171	-78.428839	-172.358660
61797	3166590	11.910876	-1.212473	0.385989	-0.016277	0.623042	0.382677	-59.135594	-78.336863	-172.598488
61798	3166615	12.195901	-1.144027	0.446153	-0.032377	0.632514	0.380781	-58.902503	-78.244004	-172.841199
61799	3166640	12.544413	-1.027313	0.486597	-0.038768	0.635420	0.376558	-58.671086	-78.151470	-173.083294
61800	3166665	12.885988	-0.955937	0.513584	-0.036509	0.629930	0.375839	-58.445921	-78.059237	-173.318751
61801	3166690	13.274484	-0.848832	0.527436	-0.035685	0.619756	0.369787	-58.227832	-77.968320	-173.546933
61802	3166715	13.605197	-0.766236	0.496020	-0.032085	0.607863	0.364767	-58.017305	-77.878524	-173.766838
61803	3166740	13.959315	-0.690592	0.465887	-0.032423	0.590785	0.359024	-57.817738	-77.790772	-173.975747
61804	3166765	14.293916	-0.677026	0.514002	-0.039199	0.573704	0.352594	-57.629263	-77.704958	-174.174367
61805	3166790	14.487933	-0.663580	0.583204	-0.038336	0.560033	0.336579	-57.445235	-77.621993	-174.368373
61806	3166815	14.672509	-0.557927	0.642157	-0.028376	0.535332	0.319049	-57.269418	-77.542722	-174.552447
61807	3166840	14.621035	-0.555922	0.861355	-0.024582	0.514033	0.286940	-57.095806	-77.469049	-174.733883
61808	3166865	14.742790	-0.444635	1.251013	-0.028333	0.444287	0.250627	-56.949561	-77.405068	-174.887880
61809	3166890	14.882777	-0.401534	1.478299	-0.020036	0.349592	0.218812	-56.843105	-77.352239	-174.999921
61810	3166915	14.810989	-0.323585	1.592830	-0.012426	0.244151	0.191681	-56.782876	-77.310706	-175.063288
61811	3166940	14.706113	-0.307484	1.687175	-0.015846	0.142026	0.163320	-56.768057	-77.280765	-175.080812
61812	3166965	14.299070	-0.750283	1.737339	-0.061001	0.065580	0.122857	-56.786230	-77.261673	-175.071146
61813	3166990	14.501376	-1.048346	1.618288	-0.083387	-0.004941	0.052604	-56.820579	-77.256531	-175.048183
61814	3167015	14.421452	-0.982553	1.667667	-0.082463	-0.044256	0.001383	-56.857647	-77.260430	-175.022028
61815	3167040	14.293359	-0.878340	1.731759	-0.097477	-0.081424	-0.016849	-56.910544	-77.269598	-174.982118
61816	3167065	14.320442	-1.098552	1.788167	-0.112572	-0.108702	-0.024557	-56.977516	-77.281814	-174.929998
61817	3167090	14.292316	-1.340985	1.877731	-0.146563	-0.130722	-0.032611	-57.058429	-77.296700	-174.868581
61818	3167115	14.004135	-1.497876	1.926196	-0.162621	-0.148430	-0.044535	-57.146896	-77.314208	-174.801451
61819	3167140	13.845187	-1.812945	1.966331	-0.168742	-0.158535	-0.056447	-57.238019	-77.334081	-174.732833
61820	3167165	13.495045	-2.061746	1.959976	-0.159067	-0.155771	-0.073454	-57.320657	-77.355766	-174.671497
61821	3167190	13.114514	-2.209158	2.042947	-0.135106	-0.150780	-0.094092	-57.390301	-77.379537	-174.619965
61822	3167215	12.768444	-2.381184	2.096725	-0.097366	-0.144263	-0.109991	-57.445479	-77.404546	-174.577362
61823	3167240	12.470696	-2.476301	2.153353	-0.044434	-0.133947	-0.123426	-57.483312	-77.430541	-174.545127
61824	3167265	12.236326	-2.523287	2.222149	-0.005442	-0.126398	-0.118952	-57.513146	-77.455410	-174.515367
61825	3167290	12.054359	-2.522203	2.293787	0.030370	-0.125170	-0.110753	-57.540133	-77.479192	-174.483272
61826	3167315	11.912438	-2.530483	2.316250	0.063901	-0.113931	-0.096232	-57.561038	-77.500183	-174.452110
61827	3167340	11.967491	-2.604703	2.281530	0.088871	-0.104950	-0.072445	-57.582085	-77.517774	-174.417521
61828	3167365	12.160355	-2.626579	2.248357	0.105459	-0.092319	-0.053477	-57.600505	-77.532099	-174.383191
61829	3167390	12.475784	-2.726722	2.165851	0.116943	-0.064370	-0.033158	-57.609090	-77.541820	-174.357251
61830	3167415	12.880719	-2.781660	2.122022	0.113164	-0.040300	-0.017206	-57.610299	-77.547595	-174.339028
61831	3167440	13.335428	-2.800595	2.011987	0.095129	-0.004435	-0.004669	-57.599105	-77.549271	-174.336544
61832	3167465	13.812272	-2.713712	1.932832	0.085066	0.021055	0.003055	-57.578075	-77.548056	-174.345609
61833	3167490	14.238458	-2.579733	1.755496	0.080572	0.053510	0.019443	-57.545631	-77.542365	-174.367023
61834	3167515	14.702964	-2.476278	1.651204	0.072275	0.102021	0.039724	-57.494652	-77.530321	-174.408244
61835	3167540	15.072184	-2.454183	1.611611	0.083098	0.149247	0.057797	-57.423049	-77.512614	-174.469395
61836	3167565	15.389014	-2.380051	1.631919	0.103217	0.188430	0.065228	-57.330040	-77.490966	-174.549526
61837	3167590	15.627193	-2.437828	1.637168	0.122431	0.218053	0.074947	-57.221916	-77.465822	-174.642327
61838	3167615	15.784037	-2.558855	1.624875	0.144935	0.244407	0.068828	-57.094320	-77.439164	-174.751390
61839	3167640	15.896658	-2.664960	1.692373	0.163983	0.258695	0.051340	-56.950983	-77.413599	-174.874190
61840	3167665	15.867247	-2.686332	1.887516	0.178809	0.265309	0.030139	-56.795087	-77.389991	-175.007695
61841	3167690	15.851760	-2.548280	2.108399	0.177591	0.246896	0.005661	-56.641134	-77.370682	-175.139398
61843	3167715	15.814105	-2.505106	2.325083	0.162682	0.204945	-0.011984	-56.505590	-77.356561	-175.254029
61845	3167740	15.718607	-2.433112	2.561720	0.142169	0.145201	-0.026755	-56.400068	-77.349039	-175.341312
61846	3167765	15.612199	-2.306049	2.786568	0.115050	0.065039	-0.035723	-56.337929	-77.348917	-175.388113
61847	3167790	15.470177	-2.085393	2.981163	0.084454	-0.032611	-0.037983	-56.331240	-77.356813	-175.382578
61848	3167815	15.326908	-1.912572	3.109162	0.043784	-0.136812	-0.023063	-56.390806	-77.371041	-175.314649
61849	3167840	15.264785	-1.789259	3.238442	-0.011577	-0.247183	-0.015612	-56.520304	-77.393248	-175.183652
61850	3167865	15.164406	-1.585963	3.294835	-0.099723	-0.354810	0.001091	-56.726507	-77.421854	-174.987011
61851	3167890	15.004728	-1.385460	3.380487	-0.194450	-0.464934	0.025922	-57.015337	-77.455916	-174.719641
61852	3167915	14.865782	-1.282261	3.386059	-0.299068	-0.555390	0.051937	-57.378547	-77.493384	-174.390897
61853	3167940	14.596189	-1.134812	3.325347	-0.382292	-0.633049	0.064585	-57.803035	-77.534944	-174.012220
61854	3167965	14.424050	-1.153967	3.313303	-0.443043	-0.699933	0.072716	-58.278653	-77.579943	-173.590156
61855	3167990	14.199446	-1.281617	3.280896	-0.499867	-0.742194	0.053641	-58.782774	-77.629654	-173.147320
61856	3168015	13.894094	-1.068211	3.240263	-0.542998	-0.770819	0.036375	-59.306781	-77.682596	-172.689857
61857	3168040	13.657432	-0.808486	3.298153	-0.582540	-0.772825	0.036436	-59.842239	-77.734913	-172.227245
61858	3168065	13.425911	-0.694800	3.412739	-0.620517	-0.764519	0.037573	-60.382962	-77.785570	-171.764902
61859	3168090	13.206676	-0.691024	3.528237	-0.671196	-0.749366	0.050087	-60.930326	-77.832667	-171.303277
61860	3168115	12.956975	-0.764368	3.654136	-0.719671	-0.723930	0.058106	-61.475657	-77.875936	-170.850093
61861	3168140	12.674479	-0.715178	3.756365	-0.761971	-0.686214	0.066800	-62.011552	-77.914785	-170.413645
61862	3168165	12.420929	-0.745528	3.790781	-0.794871	-0.643033	0.090529	-62.536907	-77.946897	-169.992853
61863	3168190	12.222110	-0.876574	3.909868	-0.819387	-0.585289	0.109181	-63.039356	-77.972062	-169.599117
61864	3168215	12.079954	-0.974458	3.979856	-0.839906	-0.521551	0.123097	-63.511769	-77.990512	-169.238160
61865	3168240	11.823493	-1.069535	4.039238	-0.850539	-0.456694	0.140266	-63.953379	-78.002174	-168.911240
61866	3168265	11.615360	-1.255054	4.009244	-0.850259	-0.381197	0.152054	-64.353230	-78.007102	-168.626980
61867	3168290	11.302567	-1.421242	3.975287	-0.854606	-0.303613	0.162278	-64.709626	-78.005539	-168.387781
61868	3168315	11.036803	-1.491143	3.915136	-0.852728	-0.226523	0.169635	-65.020016	-77.997918	-168.194240
61869	3168340	10.753085	-1.583028	3.872155	-0.840795	-0.143144	0.187534	-65.283122	-77.982876	-168.048383
61870	3168365	10.489902	-1.716292	3.851623	-0.815132	-0.069228	0.182398	-65.495429	-77.963967	-167.950698
61871	3168390	10.239340	-1.784752	3.778111	-0.794812	0.005452	0.180580	-65.658222	-77.940806	-167.900658
61872	3168415	9.933744	-1.837988	3.698022	-0.768027	0.063153	0.177813	-65.780101	-77.914457	-167.887327
61873	3168440	9.593645	-1.909185	3.625830	-0.735161	0.108868	0.169455	-65.867583	-77.886639	-167.905560
61874	3168465	9.238518	-1.991180	3.505751	-0.693934	0.151552	0.164332	-65.921679	-77.856998	-167.951905
61875	3168490	8.924845	-2.027694	3.348626	-0.668918	0.179669	0.158596	-65.953579	-77.826472	-168.017293
61876	3168515	8.624976	-2.050413	3.192920	-0.638101	0.197922	0.148152	-65.966553	-77.796125	-168.096260
61877	3168540	8.283867	-2.075750	3.002616	-0.609762	0.211500	0.137056	-65.965204	-77.766567	-168.187013
61878	3168565	7.935892	-2.088713	2.815004	-0.581533	0.216164	0.124764	-65.953927	-77.738342	-168.283798
61879	3168590	7.536870	-2.141611	2.633899	-0.545660	0.212421	0.110950	-65.936304	-77.712138	-168.381829
61880	3168615	7.235586	-2.180839	2.484751	-0.502698	0.206760	0.101571	-65.912902	-77.687352	-168.478175
61881	3168640	6.979733	-2.214655	2.340981	-0.460395	0.183137	0.084338	-65.893945	-77.666326	-168.565089
61882	3168665	6.737943	-2.168396	2.129709	-0.399379	0.172201	0.074416	-65.870306	-77.647229	-168.647855
61883	3168690	6.489325	-2.095982	1.897335	-0.343324	0.154133	0.074033	-65.849469	-77.629234	-168.719537
61884	3168715	6.209136	-2.059120	1.615561	-0.299051	0.146830	0.074250	-65.826083	-77.611498	-168.786032
61885	3168740	6.039892	-2.163162	1.494220	-0.272404	0.137407	0.079787	-65.806837	-77.593721	-168.845696
61886	3168765	5.951537	-2.296582	1.510959	-0.244781	0.107123	0.068101	-65.798590	-77.579245	-168.890048
61887	3168790	5.875801	-2.299295	1.504251	-0.204717	0.058520	0.051141	-65.808949	-77.569840	-168.909475
61888	3168815	5.741190	-2.282259	1.373995	-0.152925	-0.011392	0.030291	-65.847042	-77.567122	-168.891624
61889	3168840	5.570953	-2.203183	1.202770	-0.100702	-0.085703	0.014901	-65.918366	-77.570901	-168.833365
61890	3168865	5.381557	-2.143136	0.971659	-0.059515	-0.154144	0.002077	-66.021095	-77.580331	-168.736909
61891	3168890	5.205651	-2.141157	0.821418	-0.013408	-0.224409	-0.012606	-66.155338	-77.595720	-168.601427
61892	3168915	4.989978	-2.156767	0.598016	0.021967	-0.288115	-0.037973	-66.315520	-77.617898	-168.432976
61893	3168940	4.804598	-2.103745	0.400143	0.055344	-0.338049	-0.062034	-66.495891	-77.646129	-168.240210
61894	3168965	4.639841	-2.023349	0.242176	0.093627	-0.375432	-0.084862	-66.688210	-77.679354	-168.029624
61895	3168990	4.477774	-1.910102	0.128210	0.126259	-0.403188	-0.101906	-66.889324	-77.716234	-167.805280
61896	3169015	4.255090	-1.809280	0.023430	0.157104	-0.426629	-0.124870	-67.094933	-77.757148	-167.570687
61897	3169040	4.058692	-1.636862	-0.099678	0.176896	-0.442867	-0.130232	-67.308437	-77.799626	-167.326312
61898	3169065	3.924073	-1.567698	-0.199152	0.190900	-0.450844	-0.139570	-67.524053	-77.843584	-167.077765
61899	3169090	3.866561	-1.483463	-0.287940	0.192121	-0.457764	-0.144063	-67.744309	-77.888314	-166.824335
61900	3169115	3.787082	-1.359344	-0.371272	0.180501	-0.461613	-0.153478	-67.967310	-77.934161	-166.568754
61901	3169140	3.700514	-1.295888	-0.417636	0.157212	-0.455459	-0.158174	-68.191149	-77.980228	-166.316860
61902	3169165	3.651216	-1.213120	-0.482486	0.115967	-0.450778	-0.156738	-68.420145	-78.025648	-166.065775
61903	3169190	3.658457	-1.101448	-0.553861	0.059097	-0.443249	-0.158454	-68.653941	-78.070691	-165.818153
61904	3169215	3.646398	-0.970545	-0.618533	-0.012375	-0.425054	-0.162146	-68.886675	-78.114945	-165.581103
61905	3169240	3.625998	-0.826078	-0.634025	-0.093816	-0.408308	-0.165211	-69.122084	-78.158679	-165.354294
61906	3169265	3.660704	-0.689803	-0.668087	-0.190461	-0.385368	-0.166306	-69.358081	-78.201202	-165.141064
61907	3169290	3.688490	-0.538483	-0.676877	-0.285594	-0.360443	-0.159085	-69.595002	-78.241325	-164.940843
61908	3169315	3.703809	-0.407880	-0.667124	-0.376771	-0.334068	-0.148597	-69.831239	-78.278437	-164.753727
61909	3169340	3.731530	-0.241555	-0.642641	-0.459819	-0.297630	-0.136589	-70.060508	-78.312110	-164.586859
61910	3169365	3.745381	-0.130310	-0.606384	-0.538585	-0.271924	-0.114903	-70.290498	-78.341478	-164.430794
61911	3169390	3.796409	0.020742	-0.548728	-0.601865	-0.243489	-0.081362	-70.519680	-78.364826	-164.284825
61912	3169415	3.843241	0.159332	-0.468512	-0.646801	-0.206891	-0.055863	-70.737207	-78.382760	-164.156410
61913	3169440	3.908004	0.234843	-0.436318	-0.670235	-0.169541	-0.025503	-70.941576	-78.394850	-164.045788
61914	3169465	3.982297	0.326692	-0.354924	-0.685449	-0.136767	-0.004651	-71.131523	-78.402513	-163.952118
61915	3169490	4.057949	0.403371	-0.273570	-0.700405	-0.096039	0.017267	-71.301782	-78.405265	-163.880734
61916	3169515	4.194288	0.470573	-0.229425	-0.688326	-0.058030	0.035416	-71.448622	-78.403671	-163.830577
61917	3169540	4.279567	0.518415	-0.154810	-0.660950	-0.016342	0.053298	-71.568507	-78.397836	-163.804848
61918	3169565	4.392215	0.559144	-0.021733	-0.608142	0.025496	0.070623	-71.656882	-78.387745	-163.803563
61919	3169590	4.522752	0.531253	0.083230	-0.537217	0.066109	0.080283	-71.710291	-78.374513	-163.827603
61920	3169615	4.695474	0.358445	0.311293	-0.431304	0.106539	0.089154	-71.723129	-78.358164	-163.876656
61921	3169640	4.905325	0.159517	0.539288	-0.284433	0.132240	0.087760	-71.698374	-78.340944	-163.943537
61922	3169665	5.130215	-0.120568	0.771006	-0.115590	0.154600	0.070880	-71.631191	-78.325001	-164.029051
61923	3169690	5.348426	-0.364634	0.931091	0.063740	0.169659	0.038292	-71.521509	-78.312778	-164.131736
61924	3169715	5.561080	-0.693871	1.072274	0.250065	0.175986	-0.020172	-71.367697	-78.308067	-164.251297
61925	3169740	5.758577	-1.003925	1.217544	0.431842	0.183770	-0.079687	-71.170211	-78.311088	-164.389806
61926	3169765	5.906804	-1.198194	1.311321	0.606230	0.174922	-0.148390	-70.937943	-78.323723	-164.538321
61927	3169790	6.041525	-1.324856	1.330931	0.775688	0.172316	-0.214592	-70.667521	-78.345304	-164.701001
61928	3169815	6.184788	-1.401680	1.276282	0.928194	0.169005	-0.266095	-70.363988	-78.373742	-164.874226
61929	3169840	6.318413	-1.427753	1.241738	1.065161	0.180022	-0.318480	-70.020590	-78.408598	-165.069043
61930	3169865	6.446466	-1.430552	1.247118	1.194822	0.188983	-0.352346	-69.642877	-78.447317	-165.279903
61931	3169890	6.650261	-1.416964	1.271224	1.306712	0.200567	-0.379552	-69.232776	-78.488811	-165.507431
61932	3169915	7.023639	-1.382496	1.219711	1.402556	0.211735	-0.382018	-68.798044	-78.529633	-165.745111
61933	3169940	7.372011	-1.430730	1.215732	1.464572	0.236954	-0.377028	-68.337329	-78.568190	-166.001144
61934	3169965	7.803856	-1.584140	1.368189	1.484017	0.246071	-0.367035	-67.868085	-78.604518	-166.263004
61935	3169990	8.093956	-1.678230	1.516926	1.454593	0.231393	-0.357089	-67.413133	-78.639909	-166.514551
61936	3170015	8.292032	-1.692316	1.604600	1.391513	0.201936	-0.353822	-66.984756	-78.676027	-166.747239
61937	3170040	8.409205	-1.689403	1.558227	1.301301	0.175803	-0.340098	-66.588949	-78.711576	-166.960799
61938	3170065	8.523854	-1.607962	1.466937	1.185617	0.168651	-0.317016	-66.219225	-78.744226	-167.164635
61939	3170090	8.606747	-1.458054	1.447573	1.059233	0.177191	-0.284839	-65.869817	-78.771916	-167.366192
61940	3170115	8.683913	-1.318019	1.510539	0.933194	0.193751	-0.234972	-65.540527	-78.791791	-167.564687
61941	3170140	8.747119	-1.304550	1.574389	0.815554	0.208832	-0.189097	-65.231739	-78.804673	-167.760390
61942	3170165	8.835107	-1.262222	1.666244	0.708127	0.231278	-0.142007	-64.937465	-78.809882	-167.956978
61943	3170190	8.873576	-1.217069	1.728896	0.618774	0.252797	-0.115328	-64.649940	-78.810127	-168.159732
61946	3170215	8.936957	-1.100351	1.790455	0.553384	0.281532	-0.095628	-64.358576	-78.805760	-168.374990
61947	3170240	8.961475	-1.076087	1.912790	0.512351	0.309779	-0.084239	-64.059105	-78.798042	-168.605467
61948	3170265	8.981744	-1.034125	2.102937	0.480534	0.337030	-0.078551	-63.748706	-78.787638	-168.851737
61949	3170290	8.934559	-0.990733	2.271779	0.474025	0.347734	-0.089654	-63.429264	-78.777713	-169.108185
61950	3170315	8.872354	-0.889491	2.424872	0.484709	0.340432	-0.101556	-63.109020	-78.769410	-169.362907
61951	3170340	8.769048	-0.764664	2.504955	0.494364	0.334567	-0.103441	-62.791568	-78.761546	-169.614371
61952	3170365	8.643551	-0.690797	2.620688	0.504373	0.320095	-0.103426	-62.482339	-78.754365	-169.855997
61953	3170390	8.507249	-0.538354	2.694223	0.522457	0.300686	-0.107774	-62.181779	-78.748776	-170.086148
61954	3170415	8.435705	-0.396873	2.749113	0.545022	0.286539	-0.114629	-61.884292	-78.744678	-170.308823
61955	3170440	8.389406	-0.194386	2.652776	0.576113	0.274044	-0.125663	-61.587304	-78.742686	-170.527502
61956	3170465	8.344117	-0.163915	2.607676	0.602032	0.265369	-0.130084	-61.290651	-78.741624	-170.742055
61957	3170490	8.336128	-0.057796	2.554867	0.624904	0.279519	-0.147487	-60.975801	-78.741542	-170.971822
61958	3170515	8.358461	0.027722	2.486088	0.648549	0.282234	-0.163791	-60.649485	-78.742968	-171.208710
61959	3170540	8.416464	0.063622	2.443700	0.675836	0.285751	-0.177847	-60.312634	-78.745721	-171.453469
61960	3170565	8.478502	0.017048	2.391743	0.695825	0.285098	-0.181302	-59.971948	-78.748666	-171.699217
61961	3170590	8.495179	-0.049936	2.285216	0.712554	0.272675	-0.193024	-59.632181	-78.753673	-171.941580
61962	3170615	8.470709	-0.097538	2.130934	0.734580	0.259492	-0.191315	-59.297151	-78.759062	-172.174721
61963	3170640	8.358088	-0.117584	1.993936	0.758514	0.244100	-0.179577	-58.972953	-78.763965	-172.394490
61964	3170665	8.293770	-0.177320	1.787733	0.784283	0.221488	-0.175303	-58.660374	-78.769783	-172.598647
61965	3170690	8.262658	-0.243684	1.521773	0.803685	0.205264	-0.164099	-58.358964	-78.775233	-172.788579
61966	3170715	8.181842	-0.321232	1.295590	0.819913	0.187251	-0.148419	-58.071360	-78.779858	-172.960865
61967	3170740	8.187670	-0.530699	1.041076	0.832974	0.186075	-0.140326	-57.786189	-78.783507	-173.129959
61968	3170765	8.231925	-0.745877	0.843773	0.850222	0.175186	-0.132382	-57.508123	-78.786867	-173.289289
61969	3170790	8.287152	-0.906231	0.690464	0.868870	0.173941	-0.128423	-57.229560	-78.789696	-173.446400
61970	3170815	8.316213	-1.024062	0.569221	0.906813	0.173371	-0.133003	-56.943355	-78.792886	-173.604582
61971	3170840	8.458307	-1.101893	0.421573	0.953631	0.181896	-0.140439	-56.642857	-78.796224	-173.771674
61972	3170865	8.621009	-1.211431	0.279112	1.004285	0.191829	-0.143403	-56.327796	-78.798955	-173.946213
61973	3170890	8.855355	-1.323658	0.123458	1.076203	0.207786	-0.152285	-55.989151	-78.801277	-174.134292
61974	3170915	9.124243	-1.434309	-0.081364	1.151297	0.232945	-0.165273	-55.618695	-78.802806	-174.342703
61975	3170940	9.420679	-1.517631	-0.260832	1.232662	0.260183	-0.179732	-55.214962	-78.803632	-174.574285
61976	3170965	9.737643	-1.662799	-0.435182	1.327758	0.292009	-0.182171	-54.777716	-78.801799	-174.826144
61977	3170990	10.108445	-1.755678	-0.627927	1.446552	0.329027	-0.190124	-54.298459	-78.797426	-175.103487
61978	3171015	10.499720	-1.928461	-0.793046	1.581825	0.372893	-0.188445	-53.774670	-78.788620	-175.405431
61979	3171040	10.906192	-2.092867	-0.966056	1.726380	0.411402	-0.185540	-53.210361	-78.775717	-175.728636
61980	3171065	11.365066	-2.255874	-1.173646	1.864392	0.452298	-0.189282	-52.602236	-78.759066	-176.076374
61981	3171090	11.877621	-2.421708	-1.362511	1.997250	0.500432	-0.193256	-51.947449	-78.737901	-176.452307
61982	3171115	12.314255	-2.541115	-1.457020	2.129672	0.547970	-0.190518	-51.249734	-78.711262	-176.851769
61983	3171140	12.783775	-2.642997	-1.469064	2.239927	0.598268	-0.189166	-50.512118	-78.679022	-177.276792
61984	3171165	13.144005	-2.827865	-1.331358	2.322041	0.623057	-0.198229	-49.748400	-78.644414	-177.716489
61985	3171190	13.361160	-2.995839	-1.266759	2.356965	0.629003	-0.216343	-48.971759	-78.610061	-178.164319
61986	3171215	13.447917	-3.067097	-1.300140	2.331091	0.630259	-0.241664	-48.189539	-78.577041	-178.620870
61987	3171240	13.401210	-2.999721	-1.313242	2.260329	0.618582	-0.273225	-47.412500	-78.547337	-179.083331
61988	3171265	13.349202	-2.877057	-1.365873	2.155298	0.611848	-0.299287	-46.644617	-78.519788	-179.551847
61989	3171290	13.284888	-2.637754	-1.390443	2.025383	0.599285	-0.311081	-45.898931	-78.493476	179.983252
61990	3171315	13.225789	-2.411185	-1.307311	1.885622	0.589361	-0.314905	-45.178785	-78.467302	179.524625
61991	3171340	13.154105	-2.261747	-1.190052	1.731943	0.573619	-0.303993	-44.496845	-78.440571	179.081800
61992	3171365	13.152494	-2.153697	-1.034241	1.589054	0.533280	-0.286830	-43.866176	-78.415257	178.670377
61993	3171390	13.117825	-2.034686	-0.870431	1.454974	0.494238	-0.259312	-43.289630	-78.390409	178.294562
61994	3171415	13.150570	-1.985743	-0.721525	1.346738	0.442328	-0.223145	-42.773359	-78.366682	177.965010
61995	3171440	13.184613	-2.063122	-0.619483	1.272345	0.378736	-0.194761	-42.314061	-78.346412	177.682133
61996	3171465	13.242038	-2.147662	-0.492200	1.241035	0.317021	-0.148976	-41.912755	-78.327874	177.453873
61997	3171490	13.311725	-2.300705	-0.367769	1.226014	0.230965	-0.109440	-41.574644	-78.314466	177.287934
61998	3171515	13.437957	-2.496271	-0.284682	1.232651	0.144742	-0.078744	-41.291288	-78.307170	177.179375
61999	3171540	13.602441	-2.824124	-0.164707	1.253452	0.051262	-0.052550	-41.061618	-78.307439	177.128180
62000	3171565	13.778217	-3.047210	-0.086944	1.278973	-0.036086	-0.043640	-40.872579	-78.316281	177.122210
62001	3171590	14.004955	-3.289467	-0.021233	1.296171	-0.130616	-0.052553	-40.719082	-78.336204	177.155048
62002	3171615	14.248404	-3.416244	0.030400	1.287710	-0.217366	-0.072764	-40.595066	-78.367404	177.217146
62003	3171640	14.356929	-3.468814	0.107358	1.263214	-0.291799	-0.095408	-40.496380	-78.408891	177.301114
62004	3171665	14.285099	-3.451263	0.209766	1.217862	-0.344524	-0.129339	-40.410071	-78.459304	177.391071
62005	3171690	14.417292	-3.235957	0.338097	1.160180	-0.401746	-0.154099	-40.344933	-78.518283	177.494184
62006	3171715	14.491532	-3.074222	0.488829	1.087100	-0.451315	-0.161289	-40.309236	-78.583312	177.616936
62007	3171740	14.553510	-2.880794	0.602419	1.001135	-0.494851	-0.171948	-40.300865	-78.654141	177.754669
62008	3171765	14.577077	-2.693948	0.646959	0.897374	-0.532465	-0.157315	-40.333739	-78.727716	177.919272
62009	3171790	14.657154	-2.501610	0.674189	0.765275	-0.568906	-0.115007	-40.427292	-78.801306	178.126405
62010	3171815	14.785622	-2.337809	0.611123	0.624511	-0.596938	-0.047705	-40.593434	-78.871551	178.387166
62011	3171840	14.939307	-2.198090	0.361941	0.492162	-0.605542	0.052114	-40.840850	-78.933264	178.711131
62012	3171865	15.175388	-2.121863	0.163094	0.348781	-0.580768	0.186966	-41.174749	-78.979308	179.102225
62013	3171890	15.572172	-2.278118	0.015421	0.216354	-0.528510	0.336732	-41.587745	-79.005065	179.554527
62014	3171915	16.225829	-2.737296	-0.037516	0.092360	-0.467520	0.468810	-42.062666	-79.010986	-179.948027
62015	3171940	17.046766	-3.550177	0.018804	-0.025800	-0.400002	0.544232	-42.562385	-79.001715	-179.442738
62016	3171965	17.759951	-4.360758	0.194441	-0.141920	-0.341640	0.526936	-43.039209	-78.987173	-178.977696
62017	3171990	18.333109	-4.813908	0.389825	-0.244506	-0.306562	0.437582	-43.464039	-78.977043	-178.580575
62018	3172015	18.738584	-4.933178	0.639397	-0.311118	-0.291981	0.317250	-43.826381	-78.976741	-178.256763
62019	3172040	18.903265	-4.854561	0.902771	-0.358695	-0.292409	0.208557	-44.138399	-78.986967	-177.991236
62020	3172065	18.620700	-4.443362	1.221401	-0.400792	-0.318712	0.135291	-44.431979	-79.006949	-177.750649
62021	3172090	18.034471	-3.923949	1.330446	-0.435682	-0.336039	0.118002	-44.731451	-79.030199	-177.509169
62022	3172115	17.160145	-3.525568	1.476253	-0.454663	-0.333416	0.143623	-45.046803	-79.050310	-177.254307
62023	3172140	16.091314	-3.322459	1.647726	-0.475559	-0.307122	0.170781	-45.366496	-79.064774	-176.998081
62024	3172165	15.087090	-3.142797	1.856385	-0.506957	-0.265017	0.194038	-45.681160	-79.072365	-176.751567
62025	3172190	14.137934	-2.974226	2.063655	-0.567439	-0.218780	0.200774	-45.983679	-79.074399	-176.526249
62026	3172215	13.473776	-2.797633	2.313607	-0.644299	-0.187449	0.200613	-46.280417	-79.073078	-176.318067
62027	3172240	12.940716	-2.648036	2.440037	-0.732820	-0.158173	0.198658	-46.573018	-79.068904	-176.126975
62028	3172265	12.608295	-2.551334	2.708508	-0.837971	-0.129360	0.173309	-46.852055	-79.064362	-175.965037
62029	3172290	12.438725	-2.356694	2.901667	-0.948088	-0.121619	0.144525	-47.127946	-79.061930	-175.822364
62030	3172315	12.373951	-2.094656	3.080498	-1.046524	-0.123827	0.106075	-47.399721	-79.063589	-175.698273
62031	3172340	12.300111	-1.750806	3.069612	-1.115983	-0.135954	0.061391	-47.665809	-79.071072	-175.590080
62032	3172365	12.145148	-1.416334	2.997640	-1.156271	-0.146788	0.032528	-47.929508	-79.082564	-175.490203
62033	3172390	11.936453	-1.186128	2.870740	-1.176347	-0.150976	0.017717	-48.191428	-79.095949	-175.395069
62034	3172415	11.567975	-0.995804	2.730398	-1.159604	-0.133888	0.012605	-48.439309	-79.108133	-175.311782
62035	3172440	11.129219	-0.824647	2.596504	-1.113959	-0.100617	0.027376	-48.669739	-79.115550	-175.239622
62036	3172465	10.639249	-0.715715	2.536818	-1.048059	-0.067583	0.061019	-48.888912	-79.116171	-175.169315
62037	3172490	10.144955	-0.712661	2.490078	-0.987521	-0.020805	0.106591	-49.095380	-79.107420	-175.103114
62038	3172515	9.764453	-0.927218	2.523717	-0.924968	0.014016	0.140464	-49.289452	-79.091654	-175.040355
62039	3172540	9.484499	-1.224190	2.509249	-0.876439	0.039518	0.157175	-49.469970	-79.071694	-174.984370
62040	3172565	9.303745	-1.482614	2.496306	-0.842409	0.057943	0.149301	-49.631023	-79.050848	-174.943243
62041	3172590	9.172816	-1.661137	2.433157	-0.815742	0.070035	0.132686	-49.773123	-79.030676	-174.917526
62042	3172615	9.047476	-1.794249	2.356879	-0.774342	0.074671	0.110292	-49.895654	-79.012476	-174.905627
62043	3172640	8.995172	-1.964326	2.250018	-0.726760	0.071277	0.094432	-50.005626	-78.996363	-174.899653
62044	3172665	8.999344	-2.156433	2.112556	-0.666154	0.078985	0.081135	-50.096128	-78.981000	-174.904669
62045	3172690	9.006253	-2.355343	1.990985	-0.590795	0.085457	0.068466	-50.166112	-78.966436	-174.919593
62047	3172715	9.119196	-2.569429	1.853470	-0.517200	0.091581	0.065179	-50.220420	-78.951633	-174.939679
62049	3172740	9.143998	-2.827402	1.695890	-0.429876	0.101632	0.064905	-50.256470	-78.935985	-174.965694
62050	3172765	9.221091	-3.089545	1.559546	-0.338012	0.115502	0.052302	-50.265661	-78.920458	-175.005671
62051	3172790	9.274771	-3.331128	1.421928	-0.250572	0.137207	0.036925	-50.243008	-78.904635	-175.065335
62052	3172815	9.313338	-3.554766	1.293644	-0.162309	0.156389	0.015722	-50.187134	-78.889334	-175.145946
62053	3172840	9.356030	-3.708500	1.200158	-0.077216	0.179504	-0.003222	-50.097555	-78.874020	-175.248516
62054	3172865	9.382371	-3.783745	1.088304	0.004688	0.200452	-0.034492	-49.970221	-78.860174	-175.377614
62055	3172890	9.370104	-3.815083	1.020421	0.081930	0.214563	-0.057934	-49.813327	-78.847533	-175.525571
62056	3172915	9.326218	-3.790084	0.958018	0.147551	0.238496	-0.087376	-49.620282	-78.835756	-175.700829
62057	3172940	9.258934	-3.719791	0.918346	0.205521	0.251557	-0.109768	-49.401600	-78.825131	-175.893733
62058	3172965	9.217895	-3.606852	0.874808	0.252068	0.261563	-0.132182	-49.160546	-78.815854	-176.102652
62059	3172990	9.152190	-3.445693	0.806197	0.289446	0.264815	-0.137472	-48.910226	-78.806670	-176.315565
62060	3173015	9.073942	-3.342368	0.763954	0.306520	0.263986	-0.139685	-48.657239	-78.797571	-176.528797
62061	3173040	9.006615	-3.255682	0.749568	0.307091	0.254102	-0.137709	-48.410838	-78.789068	-176.735152
62062	3173065	8.858006	-3.179983	0.745718	0.297256	0.233819	-0.142728	-48.174692	-78.782865	-176.932493
62063	3173090	8.699739	-3.123525	0.733838	0.279145	0.215216	-0.143369	-47.951046	-78.778358	-177.119740
62064	3173115	8.542982	-2.979041	0.715617	0.241086	0.182530	-0.142188	-47.751086	-78.776681	-177.288533
62065	3173140	8.354610	-2.864644	0.668035	0.201196	0.144276	-0.141720	-47.577477	-78.778589	-177.436152
62066	3173165	8.135966	-2.726874	0.611202	0.149025	0.104608	-0.134432	-47.435948	-78.783487	-177.558683
62067	3173190	7.913343	-2.601212	0.490611	0.094181	0.062908	-0.130403	-47.326292	-78.791953	-177.656726
62068	3173215	7.693357	-2.486699	0.409798	0.035757	0.037859	-0.125271	-47.240731	-78.802227	-177.738908
62069	3173240	7.518727	-2.384728	0.364866	-0.026268	0.011700	-0.118007	-47.181323	-78.814316	-177.803310
62070	3173265	7.370205	-2.292441	0.326550	-0.088800	-0.016373	-0.114679	-47.147307	-78.828778	-177.850956
62071	3173290	7.115785	-2.123025	0.280455	-0.145032	-0.036065	-0.117974	-47.130097	-78.845501	-177.889680
62072	3173315	6.886168	-1.967339	0.221089	-0.195646	-0.052451	-0.106193	-47.134697	-78.862532	-177.913768
62073	3173340	6.711601	-1.835059	0.156302	-0.258754	-0.076237	-0.094308	-47.166839	-78.880685	-177.918790
62074	3173365	6.545262	-1.750864	0.087424	-0.315616	-0.082167	-0.077000	-47.218938	-78.897597	-177.911775
62075	3173390	6.384333	-1.680519	0.046369	-0.377837	-0.086170	-0.063795	-47.288746	-78.913507	-177.895796
62076	3173415	6.187553	-1.641813	0.002519	-0.437528	-0.086048	-0.052224	-47.372991	-78.928133	-177.874051
62077	3173440	5.960585	-1.559043	-0.051800	-0.496079	-0.089064	-0.040519	-47.473115	-78.941860	-177.844441
62078	3173465	5.766679	-1.472128	-0.115400	-0.550412	-0.091776	-0.033723	-47.586021	-78.955120	-177.809739
62079	3173490	5.620869	-1.411460	-0.145818	-0.598820	-0.090747	-0.020412	-47.712068	-78.966858	-177.768715
62080	3173515	5.450225	-1.382408	-0.185698	-0.651308	-0.083214	-0.001051	-47.851368	-78.975751	-177.722103
62081	3173540	5.282219	-1.359024	-0.176423	-0.683749	-0.081164	0.009523	-47.999461	-78.983349	-177.671013
62082	3173565	5.180176	-1.401724	-0.151365	-0.718019	-0.082624	0.023837	-48.160439	-78.989534	-177.611800
62083	3173590	5.057531	-1.434766	-0.134273	-0.745022	-0.085013	0.028886	-48.329196	-78.995375	-177.548604
62084	3173615	4.864788	-1.418156	-0.151621	-0.760842	-0.088732	0.027612	-48.501874	-79.001624	-177.483997
62085	3173640	4.754510	-1.445731	-0.127857	-0.768665	-0.096047	0.029963	-48.680897	-79.008321	-177.413794
62086	3173665	4.613964	-1.488370	-0.118752	-0.764419	-0.109223	0.030825	-48.867198	-79.016127	-177.335560
62087	3173690	4.443173	-1.529518	-0.140272	-0.750472	-0.120255	0.030559	-49.057709	-79.024950	-177.251006
62088	3173715	4.320425	-1.607972	-0.117983	-0.727120	-0.140151	0.016287	-49.249443	-79.037084	-177.162096
62089	3173740	4.188085	-1.682258	-0.101050	-0.702562	-0.153244	0.007734	-49.441092	-79.051358	-177.069399
62090	3173765	4.076215	-1.811712	-0.049704	-0.656816	-0.170149	-0.005342	-49.629810	-79.068570	-176.973018
62091	3173790	3.945287	-1.855737	-0.036668	-0.614205	-0.188383	-0.022373	-49.815037	-79.089272	-176.873982
62092	3173815	3.793692	-1.892927	-0.018285	-0.562589	-0.216712	-0.049728	-49.996565	-79.115480	-176.771511
62093	3173840	3.613258	-1.899788	-0.015737	-0.510685	-0.234462	-0.067332	-50.172960	-79.145237	-176.666388
62094	3173865	3.439751	-1.885993	-0.014469	-0.458171	-0.251219	-0.078519	-50.346900	-79.177700	-176.556115
62095	3173890	3.347513	-1.857117	-0.007770	-0.397925	-0.270116	-0.099538	-50.513953	-79.214147	-176.444081
62096	3173915	3.295111	-1.862674	0.010770	-0.332941	-0.286467	-0.112967	-50.675872	-79.253461	-176.328156
62097	3173940	3.195953	-1.888741	-0.003987	-0.272432	-0.305764	-0.118825	-50.838521	-79.295157	-176.202338
62098	3173965	3.246778	-1.908155	0.034522	-0.208513	-0.322667	-0.131176	-50.997194	-79.339687	-176.071268
62099	3173990	3.228908	-1.898501	0.030553	-0.147364	-0.344665	-0.142223	-51.156096	-79.387360	-175.931072
62100	3174015	3.271739	-1.853030	0.001509	-0.078498	-0.362018	-0.150414	-51.313067	-79.437387	-175.783193
62101	3174040	3.335233	-1.795203	-0.019538	-0.026368	-0.373079	-0.158492	-51.466652	-79.489278	-175.630822
62102	3174065	3.375530	-1.702703	-0.114867	0.022012	-0.386275	-0.160131	-51.622041	-79.542454	-175.469595
62103	3174090	3.492765	-1.637969	-0.150461	0.054669	-0.387588	-0.159928	-51.775255	-79.595644	-175.305851
62104	3174115	3.619657	-1.560878	-0.174031	0.067884	-0.380422	-0.151008	-51.928237	-79.647070	-175.140830
62105	3174140	3.783792	-1.464455	-0.224130	0.071783	-0.376628	-0.141962	-52.084111	-79.697106	-174.971944
62106	3174165	3.917462	-1.401214	-0.219866	0.063248	-0.363845	-0.131634	-52.239793	-79.744768	-174.804522
62107	3174190	4.063481	-1.338072	-0.196963	0.037184	-0.355999	-0.123529	-52.399710	-79.790742	-174.636615
62108	3174215	4.223465	-1.228003	-0.217767	0.016564	-0.339307	-0.109614	-52.560397	-79.833549	-174.471347
62109	3174240	4.372470	-1.105483	-0.261123	-0.015576	-0.321187	-0.091420	-52.724181	-79.872673	-174.307233
62110	3174265	4.565376	-1.010683	-0.242083	-0.053321	-0.298229	-0.070921	-52.889868	-79.907386	-174.146698
62111	3174290	4.727942	-0.957103	-0.236483	-0.106409	-0.272238	-0.041862	-53.061623	-79.936451	-173.987739
62112	3174315	4.891974	-0.889684	-0.253467	-0.156333	-0.242260	-0.015058	-53.235213	-79.959741	-173.834593
62113	3174340	5.013164	-0.849907	-0.227999	-0.204861	-0.214425	0.013836	-53.412200	-79.977291	-173.684665
62114	3174365	5.200334	-0.884473	-0.192117	-0.248607	-0.185917	0.044876	-53.592368	-79.988758	-173.537876
62115	3174390	5.335113	-0.920428	-0.144346	-0.284952	-0.155689	0.072226	-53.771449	-79.994423	-173.397481
62116	3174415	5.507103	-0.922076	-0.080464	-0.308619	-0.131510	0.094292	-53.948948	-79.995375	-173.262539
62117	3174440	5.667929	-0.944524	0.028478	-0.321126	-0.114018	0.110997	-54.124546	-79.992888	-173.130944
62118	3174465	5.732495	-1.047721	0.037512	-0.332913	-0.101781	0.135380	-54.305244	-79.986473	-172.995883
62119	3174490	5.793214	-1.116154	-0.050349	-0.336468	-0.065339	0.150673	-54.469420	-79.975166	-172.878113
62120	3174515	5.834371	-1.191865	-0.033280	-0.326994	-0.012070	0.163457	-54.602951	-79.957847	-172.790483
62121	3174540	5.843861	-1.251110	-0.010869	-0.311978	0.059776	0.175564	-54.692111	-79.933170	-172.745324
62122	3174565	5.876663	-1.285807	0.078044	-0.288391	0.135700	0.190593	-54.734675	-79.900444	-172.744056
62123	3174590	5.943705	-1.323529	0.229445	-0.265543	0.206262	0.197759	-54.730983	-79.861044	-172.786450
62124	3174615	5.998395	-1.344724	0.378198	-0.246090	0.267385	0.206493	-54.689097	-79.815523	-172.865226
62125	3174640	6.125995	-1.383903	0.550840	-0.245978	0.310478	0.213252	-54.622790	-79.765668	-172.968408
