PacketCounter	SampleTimeFine	Acc_X	Acc_Y	Acc_Z	Gyr_X	Gyr_Y	Gyr_Z	Roll	Pitch	Yaw	
25608	2279615	9.660620	-0.560174	1.360095	-0.012916	-0.010090	0.006902	-25.967650	-80.976687	170.594687
25609	2279640	9.653739	-0.565669	1.352057	-0.004527	-0.006913	0.010517	-25.978939	-80.977739	170.605470			
25610	2279665	9.660646	-0.579378	1.336084	-0.008731	-0.008546	0.007950	-25.989397	-80.979162	170.614801			
25611	2279690	9.666231	-0.557289	1.317583	-0.010844	-0.013795	0.011171	-26.004851	-80.981058	170.628884			
25612	2279715	9.681327	-0.583458	1.324131	-0.012828	-0.014812	0.015467	-26.024484	-80.983101	170.647609			
25613	2279740	9.630337	-0.605445	1.329335	-0.018926	-0.015944	0.008190	-26.039542	-80.985460	170.660118			
25614	2279765	9.627659	-0.599830	1.296139	-0.020856	-0.017034	0.011916	-26.058339	-80.987724	170.676134			
25615	2279790	9.634455	-0.624673	1.317315	-0.024468	-0.017789	0.012396	-26.078352	-80.990054	170.692856			
25616	2279815	9.648243	-0.620563	1.313379	-0.022165	-0.018631	0.011909	-26.097985	-80.992809	170.710230			
25617	2279840	9.626194	-0.621934	1.318638	-0.020027	-0.019164	0.014713	-26.119809	-80.995168	170.729430			
25618	2279865	9.633039	-0.631551	1.326546	-0.023943	-0.022914	0.011897	-26.141413	-80.998186	170.747839			
25619	2279890	9.631710	-0.628683	1.302616	-0.026764	-0.024657	0.014476	-26.166223	-81.001264	170.769085			
25620	2279915	9.633030	-0.649343	1.311864	-0.028904	-0.028101	0.010784	-26.189736	-81.005303	170.789410			
25621	2279940	9.633089	-0.620462	1.310633	-0.033565	-0.029181	0.014870	-26.217682	-81.008935	170.812845			
25622	2279965	9.616576	-0.595737	1.318673	-0.036657	-0.025225	0.018330	-26.247318	-81.011837	170.837541			
25623	2279990	9.635838	-0.604006	1.321299	-0.036423	-0.029756	0.014468	-26.275618	-81.015565	170.860919			
25624	2280015	9.628901	-0.598578	1.343921	-0.036804	-0.031601	0.011107	-26.302007	-81.020026	170.883015			
25625	2280040	9.608182	-0.611015	1.362445	-0.044817	-0.031695	0.012626	-26.330836	-81.024116	170.905710			
25626	2280065	9.584734	-0.612453	1.375743	-0.053254	-0.032741	0.014524	-26.362862	-81.028218	170.930419			
25627	2280090	9.598499	-0.608327	1.379758	-0.051406	-0.034995	0.017586	-26.398049	-81.032412	170.958595			
25628	2280115	9.616446	-0.604194	1.367780	-0.055334	-0.036000	0.018379	-26.434881	-81.036967	170.988580			
25629	2280140	9.602638	-0.601471	1.381090	-0.060977	-0.037132	0.019096	-26.473593	-81.041332	171.018936			
25630	2280165	9.599805	-0.629040	1.399615	-0.059357	-0.037138	0.014862	-26.508665	-81.045966	171.045842			
25631	2280190	9.621832	-0.622189	1.403647	-0.054067	-0.036216	0.016870	-26.544269	-81.050351	171.074054			
25634	2280215	9.599784	-0.619480	1.407615	-0.060993	-0.043978	0.018597	-26.585465	-81.055902	171.107640			
25635	2280240	9.621764	-0.631905	1.426184	-0.059332	-0.044701	0.017531	-26.625893	-81.061325	171.139971			
25636	2280265	9.627293	-0.589331	1.442261	-0.066987	-0.044852	0.023304	-26.672225	-81.066393	171.177167			
25637	2280290	9.627271	-0.618175	1.434209	-0.064158	-0.043263	0.015020	-26.710800	-81.071785	171.206921			
25638	2280315	9.654859	-0.594798	1.430320	-0.060056	-0.048250	0.015059	-26.750909	-81.078095	171.239550			
25639	2280340	9.646541	-0.623666	1.435528	-0.061622	-0.044626	0.017896	-26.792112	-81.083470	171.272331			
25640	2280365	9.646568	-0.608541	1.430290	-0.064367	-0.043505	0.019711	-26.834771	-81.088582	171.306187			
25641	2280390	9.643763	-0.622373	1.448818	-0.066204	-0.039107	0.014685	-26.871821	-81.093452	171.334099			
25642	2280415	9.629986	-0.610022	1.458166	-0.065820	-0.038056	0.016652	-26.910019	-81.098342	171.363965			
25643	2280440	9.645134	-0.605895	1.458195	-0.063819	-0.034302	0.019708	-26.948905	-81.102267	171.394080			
25644	2280465	9.649239	-0.612784	1.463461	-0.065501	-0.038315	0.016339	-26.986980	-81.106920	171.423131			
25645	2280490	9.646532	-0.597658	1.458207	-0.062020	-0.031959	0.018516	-27.023723	-81.110618	171.451337			
25646	2280515	9.642420	-0.576995	1.458297	-0.062788	-0.035471	0.018574	-27.062108	-81.115040	171.481842			
25647	2280540	9.639735	-0.545364	1.447749	-0.063871	-0.034480	0.020532	-27.101871	-81.118921	171.512836			
25648	2280565	9.628699	-0.557730	1.450351	-0.064683	-0.034118	0.023188	-27.143796	-81.122580	171.545901			
25649	2280590	9.614902	-0.567361	1.454305	-0.065295	-0.036910	0.020523	-27.184837	-81.126765	171.577980			
25650	2280615	9.632783	-0.577003	1.459601	-0.066660	-0.034454	0.022095	-27.226346	-81.130813	171.611101			
25651	2280640	9.613480	-0.590760	1.458227	-0.072736	-0.034745	0.019257	-27.266576	-81.134799	171.641281			
25652	2280665	9.631380	-0.596268	1.458186	-0.071543	-0.029232	0.020467	-27.305331	-81.138000	171.670141			
25653	2280690	9.619106	-0.564520	1.429059	-0.072864	-0.031301	0.018747	-27.343770	-81.141574	171.698489			
25654	2280715	9.624572	-0.576946	1.437009	-0.078504	-0.035866	0.020735	-27.386578	-81.145876	171.731220			
25655	2280740	9.613546	-0.594767	1.434263	-0.082470	-0.033912	0.022602	-27.430704	-81.149522	171.763931			
25656	2280765	9.625945	-0.596153	1.427616	-0.075594	-0.034322	0.021453	-27.473112	-81.153292	171.795900			
25657	2280790	9.612164	-0.590695	1.434290	-0.074948	-0.036095	0.018671	-27.513942	-81.157468	171.826364			
25658	2280815	9.623279	-0.585006	1.397120	-0.077893	-0.030555	0.021242	-27.554944	-81.161047	171.857366			
25659	2280840	9.646686	-0.587793	1.398429	-0.078382	-0.031109	0.022382	-27.597233	-81.164337	171.888809			
25660	2280865	9.641192	-0.561704	1.409176	-0.077966	-0.033818	0.020929	-27.639462	-81.168063	171.920251			
25661	2280890	9.612306	-0.568455	1.389176	-0.075418	-0.033690	0.021264	-27.681575	-81.171748	171.951946			
25662	2280915	9.637083	-0.563041	1.399871	-0.085434	-0.036417	0.021569	-27.726547	-81.176034	171.985885			
25663	2280940	9.634300	-0.586422	1.398415	-0.080456	-0.033695	0.020590	-27.768899	-81.179756	172.017090			
25664	2280965	9.610923	-0.578099	1.386491	-0.079803	-0.030616	0.021225	-27.810380	-81.183043	172.047508			
25665	2280990	9.627420	-0.579532	1.398449	-0.079712	-0.032413	0.020786	-27.852292	-81.186583	172.078375			
25666	2281015	9.637085	-0.561653	1.395885	-0.081404	-0.030565	0.020266	-27.893219	-81.190200	172.108818			
25667	2281040	9.639812	-0.586432	1.397108	-0.082947	-0.029662	0.020631	-27.934335	-81.193396	172.138410			
25668	2281065	9.637094	-0.567161	1.393208	-0.080773	-0.029652	0.021408	-27.975795	-81.196535	172.168665			
25669	2281090	9.641208	-0.563043	1.397209	-0.082345	-0.026962	0.021647	-28.016533	-81.199314	172.197960			
25670	2281115	9.665943	-0.580950	1.413096	-0.080338	-0.029148	0.020906	-28.057312	-81.202695	172.228423			
25671	2281140	9.671437	-0.565920	1.426447	-0.080515	-0.030774	0.019005	-28.097337	-81.206128	172.257263			
25672	2281165	9.681067	-0.602977	1.409026	-0.079787	-0.031307	0.021739	-28.139751	-81.209440	172.288625			
25673	2281190	9.689277	-0.615396	1.426275	-0.078571	-0.030303	0.016673	-28.177441	-81.212965	172.315382			
25674	2281215	9.680989	-0.630524	1.424926	-0.082460	-0.033079	0.018612	-28.218470	-81.216985	172.345802			
25675	2281240	9.708602	-0.630437	1.399641	-0.084102	-0.031452	0.016251	-28.257167	-81.220677	172.372776			
25676	2281265	9.701632	-0.641558	1.426186	-0.086553	-0.034960	0.020483	-28.301242	-81.224522	172.404837			
25677	2281290	9.690612	-0.627839	1.436853	-0.085905	-0.040759	0.017703	-28.345542	-81.229283	172.437219			
25678	2281315	9.716808	-0.611315	1.434280	-0.087062	-0.036606	0.017375	-28.387899	-81.233818	172.468324			
25679	2281340	9.700197	-0.626529	1.458134	-0.081542	-0.034419	0.018747	-28.429704	-81.237701	172.498813			
25680	2281365	9.700216	-0.641610	1.443457	-0.075597	-0.037304	0.022791	-28.475272	-81.241669	172.533971			
25681	2281390	9.707118	-0.618240	1.448855	-0.074202	-0.040233	0.023504	-28.522561	-81.245953	172.571072			
25682	2281415	9.704322	-0.632036	1.454130	-0.069495	-0.041391	0.027470	-28.572921	-81.250382	172.612831			
25683	2281440	9.719446	-0.654052	1.458053	-0.077930	-0.040025	0.020050	-28.617911	-81.254867	172.647065			
25684	2281465	9.716671	-0.654058	1.459392	-0.074042	-0.042482	0.022618	-28.665583	-81.259480	172.684575			
25685	2281490	9.701497	-0.660942	1.468665	-0.074574	-0.045507	0.021476	-28.713796	-81.264547	172.722555			
25686	2281515	9.709717	-0.650038	1.492599	-0.071545	-0.044517	0.019595	-28.759588	-81.269889	172.759403			
25687	2281540	9.712493	-0.645902	1.484672	-0.068612	-0.049144	0.018165	-28.805974	-81.275632	172.796397			
25688	2281565	9.698751	-0.666450	1.459336	-0.069974	-0.053689	0.021771	-28.857609	-81.281691	172.838504			
25689	2281590	9.701578	-0.643009	1.447441	-0.066932	-0.053923	0.019512	-28.907129	-81.287929	172.878912			
25690	2281615	9.708475	-0.638859	1.442162	-0.070043	-0.051048	0.018978	-28.955363	-81.294114	172.918456			
25691	2281640	9.702974	-0.633358	1.444829	-0.063519	-0.058752	0.021383	-29.008247	-81.300817	172.962759			
25692	2281665	9.685070	-0.648467	1.436789	-0.066534	-0.056998	0.023004	-29.062166	-81.307182	173.007673			
25693	2281690	9.669897	-0.637500	1.448799	-0.062479	-0.055015	0.023541	-29.115112	-81.313255	173.052188			
25694	2281715	9.667220	-0.615425	1.436873	-0.067165	-0.055724	0.018686	-29.165082	-81.320023	173.093915			
25695	2281740	9.639762	-0.598831	1.406393	-0.064147	-0.057533	0.017887	-29.214925	-81.326794	173.135048			
25696	2281765	9.621801	-0.603055	1.431580	-0.065269	-0.056766	0.021935	-29.267965	-81.333180	173.179252			
25697	2281790	9.628742	-0.578259	1.422390	-0.067843	-0.055163	0.022039	-29.320792	-81.339352	173.222868			
25698	2281815	9.638439	-0.578150	1.397150	-0.066517	-0.051486	0.028197	-29.376784	-81.344900	173.270794			
25699	2281840	9.653546	-0.568614	1.423735	-0.069644	-0.050227	0.022592	-29.428176	-81.350405	173.312695			
25700	2281865	9.681110	-0.575449	1.410460	-0.070313	-0.054002	0.026333	-29.484543	-81.356111	173.359531			
25701	2281890	9.682513	-0.583656	1.393177	-0.067826	-0.053388	0.020900	-29.535878	-81.362118	173.401637			
25702	2281915	9.644013	-0.568480	1.378588	-0.062095	-0.056785	0.020882	-29.587950	-81.368816	173.446254			
25703	2281940	9.620615	-0.549216	1.383952	-0.062655	-0.057553	0.020812	-29.640551	-81.375336	173.490388			
25704	2281965	9.623374	-0.547851	1.379962	-0.060020	-0.050960	0.021717	-29.690505	-81.380965	173.532226			
25705	2281990	9.645381	-0.569823	1.381223	-0.067110	-0.054488	0.020269	-29.741999	-81.387131	173.574594			
25706	2282015	9.664692	-0.542363	1.386654	-0.062840	-0.055744	0.017834	-29.791456	-81.393892	173.616476			
25707	2282040	9.657818	-0.562954	1.369297	-0.059669	-0.057304	0.020647	-29.843658	-81.400369	173.660636			
25708	2282065	9.666148	-0.553227	1.348062	-0.059484	-0.056653	0.021347	-29.896174	-81.406710	173.705139			
25709	2282090	9.681267	-0.565643	1.352034	-0.062428	-0.055605	0.014539	-29.943091	-81.413401	173.743553			
25710	2282115	9.664772	-0.555976	1.345421	-0.061125	-0.059074	0.025712	-30.000629	-81.419989	173.793874			
25711	2282140	9.671568	-0.572540	1.369285	-0.060895	-0.051184	0.023551	-30.052775	-81.425475	173.837797			
25712	2282165	9.685296	-0.589101	1.377188	-0.061339	-0.056933	0.019684	-30.104607	-81.431946	173.881337			
25713	2282190	9.678460	-0.534146	1.394653	-0.056075	-0.052099	0.018454	-30.152433	-81.437900	173.921588			
25714	2282215	9.684023	-0.518936	1.378764	-0.055298	-0.049621	0.017698	-30.198301	-81.443868	173.960970			
25715	2282240	9.697698	-0.547938	1.399919	-0.050323	-0.050080	0.017232	-30.243450	-81.449651	173.999345			
25716	2282265	9.718335	-0.550706	1.403930	-0.045273	-0.047286	0.024433	-30.292517	-81.454563	174.042414			
25717	2282290	9.722429	-0.578212	1.406494	-0.047857	-0.049870	0.022452	-30.341620	-81.459933	174.085144			
25718	2282315	9.714129	-0.581009	1.423722	-0.044397	-0.054333	0.023496	-30.393190	-81.466044	174.131891			
25719	2282340	9.732027	-0.602992	1.410445	-0.049974	-0.050086	0.020848	-30.441501	-81.471546	174.173512			
25720	2282365	9.726512	-0.597502	1.415708	-0.048558	-0.053178	0.023399	-30.493268	-81.477238	174.218833			
25721	2282390	9.753987	-0.623697	1.427625	-0.053841	-0.054343	0.021964	-30.545241	-81.483173	174.263596			
25722	2282415	9.729190	-0.611358	1.436951	-0.049260	-0.053574	0.022569	-30.596632	-81.489233	174.309471			
25723	2282440	9.745694	-0.620987	1.442228	-0.048751	-0.055222	0.019343	-30.646280	-81.495455	174.352619			
25724	2282465	9.719444	-0.659515	1.452737	-0.048730	-0.055647	0.020799	-30.697400	-81.501618	174.397257			
25725	2282490	9.708407	-0.651315	1.466030	-0.044155	-0.058925	0.020140	-30.748999	-81.508227	174.443042			
25726	2282515	9.693293	-0.640311	1.458099	-0.044756	-0.058858	0.024445	-30.804153	-81.514774	174.493387			
25727	2282540	9.701564	-0.670472	1.435376	-0.046645	-0.059603	0.025766	-30.861236	-81.521041	174.544355			
25728	2282565	9.634085	-0.663564	1.435404	-0.049448	-0.057544	0.022566	-30.915144	-81.527282	174.591705			
25729	2282590	9.653368	-0.645772	1.447411	-0.047958	-0.056429	0.020231	-30.966435	-81.533552	174.636624			
25730	2282615	9.671262	-0.664977	1.443383	-0.044917	-0.059789	0.026155	-31.023789	-81.540058	174.689179			
25731	2282640	9.707111	-0.675875	1.418110	-0.048533	-0.058353	0.023845	-31.079249	-81.546284	174.738230			
25732	2282665	9.715311	-0.726791	1.411308	-0.050505	-0.062367	0.024213	-31.137375	-81.552969	174.789688			
25733	2282690	9.716815	-0.719697	1.367476	-0.045522	-0.062674	0.025585	-31.196160	-81.559581	174.842533			
25736	2282715	9.697493	-0.712903	1.386084	-0.046709	-0.061300	0.023483	-31.252648	-81.566439	174.893957			
25737	2282740	9.694786	-0.704615	1.372836	-0.043321	-0.063393	0.020783	-31.307686	-81.573481	174.943331			
25738	2282765	9.704435	-0.705982	1.367530	-0.039642	-0.062770	0.019988	-31.361313	-81.580499	174.991811			
25739	2282790	9.689302	-0.719652	1.354173	-0.033997	-0.062642	0.024596	-31.417960	-81.587151	175.044160			
25740	2282815	9.661821	-0.694883	1.340962	-0.033776	-0.068073	0.024921	-31.477549	-81.594699	175.100594			
25741	2282840	9.659130	-0.686536	1.323700	-0.034332	-0.062738	0.022754	-31.532951	-81.601485	175.151633			
25742	2282865	9.648136	-0.685111	1.311741	-0.035506	-0.066820	0.019135	-31.587688	-81.609034	175.201831			
25743	2282890	9.659195	-0.661707	1.310515	-0.032189	-0.067413	0.018336	-31.641685	-81.616708	175.251759			
25744	2282915	9.637139	-0.635671	1.330518	-0.025524	-0.070652	0.016236	-31.694610	-81.625191	175.302656			
25745	2282940	9.597285	-0.606746	1.314627	-0.026791	-0.073960	0.025165	-31.757038	-81.633134	175.361887			
25746	2282965	9.608291	-0.606752	1.318649	-0.021710	-0.074278	0.029835	-31.822886	-81.640754	175.425307			
25747	2282990	9.642869	-0.574948	1.274914	-0.025135	-0.070651	0.024481	-31.883037	-81.648327	175.482473			
25748	2283015	9.642821	-0.595606	1.284129	-0.024690	-0.070646	0.024484	-31.943095	-81.656154	175.540714			
25749	2283040	9.637276	-0.592926	1.301425	-0.030230	-0.073408	0.019370	-32.001381	-81.664432	175.595255			
25750	2283065	9.651096	-0.579145	1.290845	-0.029376	-0.077331	0.021982	-32.063862	-81.672980	175.654157			
25751	2283090	9.646936	-0.570910	1.304149	-0.028482	-0.078462	0.027189	-32.131247	-81.681259	175.718145			
25752	2283115	9.641400	-0.577841	1.314768	-0.028796	-0.077195	0.022557	-32.194161	-81.689991	175.778693			
25753	2283140	9.642814	-0.558582	1.309495	-0.037041	-0.076580	0.028324	-32.262989	-81.697934	175.842897			
25754	2283165	9.631728	-0.579244	1.325374	-0.036348	-0.076072	0.028200	-32.331476	-81.705814	175.906855			
25755	2283190	9.659344	-0.520148	1.329586	-0.041312	-0.079493	0.029559	-32.403731	-81.713992	175.973901			
25756	2283215	9.707546	-0.522918	1.329590	-0.036427	-0.080474	0.032392	-32.478144	-81.722322	176.044985			
25757	2283240	9.711609	-0.528472	1.354814	-0.045605	-0.077489	0.030416	-32.550941	-81.730168	176.111955			
25758	2283265	9.675848	-0.527062	1.337526	-0.044335	-0.078554	0.028014	-32.622260	-81.738315	176.177614			
25759	2283290	9.645557	-0.538017	1.326848	-0.047168	-0.079867	0.029770	-32.696279	-81.746473	176.245589			
25760	2283315	9.714508	-0.507704	1.307099	-0.055616	-0.075689	0.026216	-32.766298	-81.754654	176.309478			
25761	2283340	9.703345	-0.528487	1.350843	-0.055276	-0.068305	0.028364	-32.834384	-81.761504	176.370283			
25762	2283365	9.759900	-0.536620	1.316312	-0.065592	-0.066033	0.033611	-32.907195	-81.767663	176.434367			
25763	2283390	9.768160	-0.548956	1.312255	-0.065836	-0.059375	0.026061	-32.970277	-81.773599	176.488586			
25764	2283415	9.791511	-0.565548	1.325546	-0.066541	-0.069313	0.028092	-33.040433	-81.780824	176.551055			
25765	2283440	9.806679	-0.573749	1.310884	-0.061587	-0.061606	0.026795	-33.104908	-81.786951	176.607294			
25766	2283465	9.777720	-0.591639	1.316129	-0.063439	-0.054806	0.032224	-33.170558	-81.791829	176.664451			
25767	2283490	9.812199	-0.576473	1.306912	-0.068302	-0.060926	0.032763	-33.240758	-81.797389	176.725501			
25768	2283515	9.774860	-0.641201	1.330564	-0.064506	-0.057939	0.028160	-33.304867	-81.803205	176.782172			
25769	2283540	9.746040	-0.631448	1.296031	-0.066832	-0.055426	0.029470	-33.369285	-81.808345	176.837591			
25770	2283565	9.765297	-0.619132	1.312043	-0.065023	-0.053389	0.028913	-33.431938	-81.813278	176.891489			
25771	2283590	9.747440	-0.597086	1.306773	-0.062412	-0.053336	0.028555	-33.493961	-81.818223	176.945126			
25772	2283615	9.757075	-0.610816	1.298785	-0.065753	-0.050135	0.024468	-33.551186	-81.823364	176.994679			
25773	2283640	9.759866	-0.623103	1.280140	-0.064155	-0.055094	0.030380	-33.616084	-81.828359	177.050968			
25774	2283665	9.766747	-0.638207	1.270794	-0.063601	-0.048181	0.027083	-33.674412	-81.832783	177.100698			
25775	2283690	9.768154	-0.613465	1.272214	-0.062802	-0.045325	0.021762	-33.726680	-81.837282	177.144422			
25776	2283715	9.783402	-0.618820	1.233651	-0.057682	-0.041576	0.024778	-33.778497	-81.841351	177.189695			
25777	2283740	9.765581	-0.604981	1.205789	-0.056522	-0.040546	0.021361	-33.826976	-81.845302	177.230499			
25778	2283765	9.750432	-0.610468	1.201777	-0.053521	-0.043720	0.023036	-33.878229	-81.849493	177.274539			
25779	2283790	9.732551	-0.596681	1.203128	-0.047769	-0.044411	0.016361	-33.923551	-81.854293	177.313419			
25780	2283815	9.724320	-0.582926	1.191233	-0.048035	-0.038481	0.019522	-33.968066	-81.858393	177.352728			
25781	2283840	9.725719	-0.577386	1.189910	-0.044693	-0.042534	0.022091	-34.016748	-81.862503	177.395447			
25782	2283865	9.691262	-0.569197	1.205835	-0.043173	-0.039975	0.018421	-34.060774	-81.866599	177.433682			
25783	2283890	9.658281	-0.536158	1.193989	-0.047432	-0.039753	0.020033	-34.106666	-81.870534	177.473186			
25784	2283915	9.641804	-0.518244	1.187384	-0.048898	-0.038897	0.021604	-34.153420	-81.874500	177.514654			
25785	2283940	9.637615	-0.522408	1.207330	-0.056514	-0.045770	0.018887	-34.203140	-81.879231	177.556709			
25786	2283965	9.648575	-0.514319	1.237886	-0.057396	-0.042525	0.025916	-34.257040	-81.883007	177.602858			
25787	2283990	9.612725	-0.506100	1.256520	-0.064780	-0.043163	0.025541	-34.312094	-81.886882	177.649105			
25788	2284015	9.603074	-0.507495	1.260474	-0.078228	-0.044285	0.030252	-34.373445	-81.890765	177.701103			
25789	2284040	9.579677	-0.456706	1.277945	-0.083736	-0.045982	0.023426	-34.431163	-81.895130	177.747296			
25790	2284065	9.568673	-0.451156	1.284547	-0.078523	-0.044513	0.032024	-34.494485	-81.898619	177.799904			
25791	2284090	9.627816	-0.473241	1.297837	-0.084683	-0.046374	0.030968	-34.558926	-81.902405	177.852750			
25792	2284115	9.615415	-0.460922	1.308486	-0.084125	-0.042830	0.028621	-34.619126	-81.906218	177.902768			
25793	2284140	9.611303	-0.440298	1.312567	-0.083102	-0.042768	0.028694	-34.679496	-81.909748	177.951730			
25794	2284165	9.600349	-0.427894	1.296641	-0.088428	-0.040118	0.030105	-34.740324	-81.912844	178.000384			
25795	2284190	9.593379	-0.437561	1.321861	-0.082198	-0.032759	0.035156	-34.800249	-81.914654	178.049027			
25796	2284215	9.605849	-0.430611	1.296664	-0.076804	-0.027771	0.027651	-34.850075	-81.916748	178.089666			
25797	2284240	9.625105	-0.434777	1.307250	-0.076698	-0.020216	0.032464	-34.899794	-81.917292	178.128796			
25798	2284265	9.660974	-0.431954	1.282067	-0.072737	-0.012986	0.033189	-34.945375	-81.916922	178.164319			
25799	2284290	9.651332	-0.448387	1.270029	-0.066361	-0.006561	0.031713	-34.985103	-81.915917	178.194854			
25800	2284315	9.655422	-0.484153	1.265953	-0.063150	0.008896	0.035401	-35.018180	-81.913055	178.220591			
25801	2284340	9.654022	-0.508859	1.261867	-0.060804	0.016153	0.033700	-35.045584	-81.909216	178.239481			
25802	2284365	9.689780	-0.524070	1.272458	-0.055537	0.023717	0.031266	-35.065828	-81.904690	178.251902			
25803	2284390	9.664911	-0.547521	1.293614	-0.052232	0.035265	0.030395	-35.078185	-81.898881	178.256835			
25804	2284415	9.695172	-0.586002	1.281551	-0.051524	0.040244	0.033885	-35.090118	-81.892465	178.262928			
25805	2284440	9.751625	-0.612075	1.276203	-0.048101	0.047690	0.031878	-35.095900	-81.885077	178.261818			
25806	2284465	9.748864	-0.623096	1.273488	-0.052179	0.049685	0.028485	-35.098325	-81.877735	178.256726			
25807	2284490	9.733670	-0.630020	1.284074	-0.048104	0.053512	0.028324	-35.097830	-81.869958	178.249274			
25808	2284515	9.740481	-0.641113	1.306659	-0.043942	0.054803	0.025374	-35.093267	-81.862536	178.239821			
25809	2284540	9.719839	-0.594414	1.329359	-0.048880	0.052291	0.023817	-35.089913	-81.855273	178.229369			
25810	2284565	9.710194	-0.587562	1.337338	-0.056925	0.047697	0.027749	-35.093581	-81.848225	178.224845			
25811	2284590	9.722617	-0.551853	1.346771	-0.058648	0.040409	0.027490	-35.101471	-81.842052	178.224338			
25812	2284615	9.730914	-0.532620	1.342870	-0.067505	0.033212	0.028314	-35.115094	-81.836917	178.229877			
25813	2284640	9.708880	-0.516112	1.353554	-0.068057	0.029007	0.037251	-35.138829	-81.831276	178.244015			
25814	2284665	9.726761	-0.538121	1.353450	-0.079553	0.027590	0.031458	-35.160275	-81.826277	178.254177			
25815	2284690	9.706085	-0.539499	1.354805	-0.086001	0.016844	0.038579	-35.194596	-81.821949	178.276415			
25816	2284715	9.707539	-0.503691	1.341613	-0.085196	0.012432	0.034532	-35.227657	-81.818731	178.299066			
25817	2284740	9.690988	-0.542176	1.333496	-0.095709	0.008018	0.033563	-35.264307	-81.815845	178.322252			
25818	2284765	9.711685	-0.535254	1.320238	-0.099672	0.006078	0.035879	-35.304503	-81.812993	178.348445			
25819	2284790	9.667616	-0.542107	1.317533	-0.100784	-0.001585	0.032328	-35.346363	-81.811328	178.376159			
25820	2284815	9.675956	-0.521381	1.297695	-0.099210	-0.003466	0.026695	-35.384120	-81.810608	178.401561			
25821	2284840	9.676103	-0.489600	1.253960	-0.099678	-0.002044	0.027578	-35.422210	-81.809385	178.425627			
25822	2284865	9.687147	-0.474478	1.259316	-0.100458	0.000569	0.023010	-35.455191	-81.808235	178.444419			
25823	2284890	9.684418	-0.452484	1.255393	-0.101084	-0.001718	0.027885	-35.493525	-81.806944	178.468528			
25824	2284915	9.674766	-0.456611	1.258065	-0.096901	-0.000250	0.028104	-35.530181	-81.805724	178.493190			
25825	2284940	9.648603	-0.455247	1.258029	-0.098391	-0.004601	0.023597	-35.566309	-81.805122	178.515460			
25826	2284965	9.640361	-0.474415	1.239370	-0.104019	-0.000472	0.029948	-35.605984	-81.803507	178.540500			
25827	2284990	9.605992	-0.457843	1.224792	-0.103223	0.000921	0.029191	-35.644113	-81.801791	178.564093			
25828	2285015	9.619721	-0.457926	1.243411	-0.105838	0.007859	0.027075	-35.676457	-81.799706	178.583144			
25829	2285040	9.616902	-0.478619	1.252624	-0.112647	0.001855	0.030898	-35.716745	-81.797734	178.607555			
25830	2285065	9.636117	-0.507525	1.264499	-0.114739	0.005387	0.031701	-35.755915	-81.795283	178.630533			
25831	2285090	9.598972	-0.515684	1.241854	-0.116383	0.002514	0.027885	-35.793897	-81.793482	178.652073			
25832	2285115	9.585216	-0.504689	1.245870	-0.123823	0.002159	0.029026	-35.833619	-81.791889	178.676012			
25833	2285140	9.600302	-0.511659	1.268463	-0.122342	-0.000517	0.025617	-35.872366	-81.790626	178.697463			
25834	2285165	9.575512	-0.517119	1.261779	-0.122476	-0.000197	0.025806	-35.911088	-81.789308	178.718870			
25835	2285190	9.626397	-0.552920	1.269658	-0.125031	-0.002138	0.027885	-35.952969	-81.788039	178.743098			
25838	2285215	9.593303	-0.554325	1.281587	-0.124796	-0.008926	0.027256	-35.997805	-81.787870	178.772095			
25839	2285240	9.568564	-0.525439	1.277703	-0.124341	-0.009640	0.026751	-36.043038	-81.787560	178.799810			
25840	2285265	9.575425	-0.515878	1.294988	-0.123961	-0.011304	0.030497	-36.092191	-81.787124	178.831541			
25841	2285290	9.589214	-0.508980	1.293692	-0.133504	-0.014557	0.026052	-36.141048	-81.787435	178.861591			
25842	2285315	9.615441	-0.510282	1.269793	-0.134505	-0.017235	0.030357	-36.194596	-81.787952	178.898022			
25843	2285340	9.613987	-0.524126	1.292355	-0.141500	-0.021501	0.030938	-36.252591	-81.788644	178.936148			
25844	2285365	9.633246	-0.535133	1.296292	-0.153001	-0.018837	0.032559	-36.311973	-81.788886	178.974010			
25845	2285390	9.616666	-0.510492	1.330898	-0.150196	-0.022484	0.032456	-36.373020	-81.789551	179.013961			
25846	2285415	9.623564	-0.516003	1.321598	-0.153255	-0.023337	0.030912	-36.433292	-81.790704	179.054507			
25847	2285440	9.635944	-0.518726	1.324258	-0.157130	-0.028871	0.036213	-36.502122	-81.791772	179.101317			
25848	2285465	9.638743	-0.510468	1.314955	-0.166351	-0.032842	0.030875	-36.570378	-81.793745	179.146214			
25849	2285490	9.629033	-0.524260	1.333539	-0.172538	-0.032327	0.030696	-36.639100	-81.795667	179.190685			
25850	2285515	9.617969	-0.550409	1.336092	-0.172707	-0.034724	0.028667	-36.707169	-81.798294	179.236330			
25851	2285540	9.611034	-0.577929	1.341309	-0.184655	-0.036885	0.028510	-36.778654	-81.800910	179.281839			
25852	2285565	9.616424	-0.601438	1.374460	-0.177455	-0.038892	0.031421	-36.852658	-81.803499	179.330934			
25853	2285590	9.590259	-0.605540	1.374413	-0.178216	-0.037822	0.026534	-36.922284	-81.806376	179.375496			
25854	2285615	9.597078	-0.630357	1.382344	-0.177112	-0.042148	0.027812	-36.994870	-81.809894	179.425096			
25855	2285640	9.550245	-0.616615	1.395600	-0.182587	-0.043255	0.026184	-37.068188	-81.813407	179.472754			
25856	2285665	9.521311	-0.594688	1.410309	-0.183336	-0.047861	0.025927	-37.144229	-81.817460	179.523055			
25857	2285690	9.557141	-0.585051	1.411663	-0.177765	-0.052576	0.027244	-37.223422	-81.821926	179.577346			
25858	2285715	9.584752	-0.586353	1.381150	-0.184120	-0.059608	0.030562	-37.309936	-81.827158	179.640032			
25859	2285740	9.598485	-0.605617	1.385046	-0.188394	-0.058080	0.025836	-37.393024	-81.832352	179.696719			
25860	2285765	9.564067	-0.631667	1.366349	-0.194505	-0.067313	0.023638	-37.480943	-81.838774	179.757401			
25861	2285790	9.557170	-0.628953	1.371667	-0.198871	-0.065988	0.022207	-37.567664	-81.845158	179.816239			
25862	2285815	9.568221	-0.619277	1.363729	-0.196649	-0.075078	0.025532	-37.661808	-81.852532	179.884846			
25863	2285840	9.590234	-0.586365	1.390461	-0.193746	-0.073358	0.025423	-37.755098	-81.859443	179.951060			
25864	2285865	9.580624	-0.612452	1.367747	-0.199768	-0.078374	0.026904	-37.853642	-81.866775	-179.978291			
25865	2285890	9.568294	-0.617794	1.335861	-0.189643	-0.081837	0.027175	-37.953237	-81.874458	-179.905116			
25866	2285915	9.565594	-0.590257	1.331935	-0.193572	-0.083973	0.025244	-38.052777	-81.882796	-179.830587			
25867	2285940	9.551913	-0.577773	1.302750	-0.187087	-0.089434	0.028025	-38.157726	-81.891223	-179.751637			
25868	2285965	9.535482	-0.563917	1.270860	-0.187850	-0.094911	0.025235	-38.264184	-81.900493	-179.671276			
25869	2285990	9.563080	-0.555596	1.249659	-0.190711	-0.098138	0.027180	-38.374819	-81.909932	-179.587111			
25870	2286015	9.594727	-0.592672	1.240286	-0.185382	-0.097209	0.033563	-38.488786	-81.918937	-179.496799			
25871	2286040	9.619518	-0.588572	1.242932	-0.189587	-0.107183	0.029038	-38.606879	-81.929176	-179.404943			
25872	2286065	9.622329	-0.583023	1.227020	-0.181325	-0.110078	0.028411	-38.725390	-81.939768	-179.311473			
25873	2286090	9.603144	-0.549939	1.208508	-0.180709	-0.118260	0.024614	-38.846291	-81.951587	-179.215501			
25874	2286115	9.632080	-0.567748	1.192528	-0.180693	-0.121069	0.028743	-38.971955	-81.963582	-179.112675			
25875	2286140	9.681669	-0.555403	1.195269	-0.183833	-0.127436	0.021684	-39.097517	-81.976628	-179.012454			
25876	2286165	9.687193	-0.566346	1.180612	-0.180671	-0.136703	0.030151	-39.235633	-81.989904	-178.899101			
25877	2286190	9.696848	-0.574558	1.171279	-0.179772	-0.143290	0.025854	-39.374907	-82.004263	-178.784452			
25878	2286215	9.725788	-0.606112	1.144623	-0.182870	-0.142640	0.030267	-39.517526	-82.018372	-178.664802			
25879	2286240	9.692876	-0.553736	1.120865	-0.171776	-0.146668	0.023192	-39.656677	-82.033267	-178.549129			
25880	2286265	9.688809	-0.515219	1.115672	-0.171608	-0.149032	0.023261	-39.797885	-82.048378	-178.431360			
25881	2286290	9.699862	-0.506944	1.106415	-0.172137	-0.149474	0.027567	-39.943343	-82.063100	-178.309378			
25882	2286315	9.717707	-0.546830	1.107599	-0.175801	-0.150461	0.029442	-40.091332	-82.077981	-178.183266			
25883	2286340	9.731483	-0.538551	1.107640	-0.180279	-0.158492	0.026433	-40.244071	-82.093708	-178.055121			
25884	2286365	9.710869	-0.538514	1.091691	-0.180471	-0.164650	0.029105	-40.403623	-82.109812	-177.920130			
25885	2286390	9.717794	-0.500010	1.098480	-0.181270	-0.166178	0.029407	-40.565157	-82.126002	-177.783261			
25886	2286415	9.742545	-0.513801	1.106429	-0.181983	-0.166596	0.027062	-40.725213	-82.142671	-177.645843			
25887	2286440	9.760469	-0.513779	1.095786	-0.178801	-0.165288	0.029182	-40.886841	-82.158680	-177.508531			
25888	2286465	9.783910	-0.524739	1.081192	-0.178498	-0.169806	0.026333	-41.049888	-82.175391	-177.369749			
25889	2286490	9.799098	-0.532907	1.061210	-0.179809	-0.166181	0.029106	-41.213452	-82.191397	-177.230640			
25890	2286515	9.759143	-0.542516	1.059821	-0.188477	-0.170074	0.028914	-41.380781	-82.208054	-177.086805			
25891	2286540	9.764668	-0.542502	1.051840	-0.185336	-0.173074	0.025268	-41.548177	-82.225054	-176.944638			
25892	2286565	9.761963	-0.549313	1.029253	-0.188379	-0.169660	0.026760	-41.715468	-82.241489	-176.803023			
25893	2286590	9.764705	-0.579482	1.015860	-0.197288	-0.167498	0.025293	-41.882020	-82.257778	-176.663447			
25894	2286615	9.721998	-0.590499	1.014484	-0.197338	-0.167938	0.026114	-42.049533	-82.274252	-176.520699			
25895	2286640	9.708229	-0.591846	1.014449	-0.200428	-0.164947	0.020890	-42.212563	-82.290583	-176.385141			
25896	2286665	9.717941	-0.575295	0.994583	-0.205065	-0.161403	0.022373	-42.375520	-82.306345	-176.250334			
25897	2286690	9.698643	-0.602750	0.987824	-0.201784	-0.163786	0.021575	-42.539702	-82.322383	-176.113820			
25898	2286715	9.687618	-0.635699	0.969106	-0.211219	-0.161868	0.024922	-42.706453	-82.338116	-175.973841			
25899	2286740	9.658743	-0.593056	0.971890	-0.216328	-0.161953	0.023295	-42.873991	-82.353688	-175.836054			
25900	2286765	9.629757	-0.635682	0.971757	-0.213735	-0.166222	0.020401	-43.042631	-82.369936	-175.696785			
25901	2286790	9.624289	-0.649363	0.949103	-0.212209	-0.164977	0.022632	-43.212536	-82.385781	-175.556025			
25902	2286815	9.605082	-0.678049	0.901169	-0.215822	-0.168884	0.017849	-43.382107	-82.402723	-175.413865			
25903	2286840	9.595344	-0.668605	0.950355	-0.215937	-0.169793	0.016961	-43.553004	-82.419517	-175.272653			
25904	2286865	9.594031	-0.639683	0.937161	-0.216915	-0.167196	0.019552	-43.724817	-82.435729	-175.130665			
25905	2286890	9.581716	-0.639559	0.907925	-0.216761	-0.172432	0.019808	-43.901402	-82.452400	-174.983845			
25906	2286915	9.596787	-0.712422	0.897031	-0.217459	-0.175253	0.015178	-44.076682	-82.470040	-174.836167			
25907	2286940	9.605094	-0.682146	0.895833	-0.214767	-0.176941	0.013745	-44.253125	-82.487660	-174.689214			
25908	2286965	9.609192	-0.705556	0.897092	-0.208524	-0.178206	0.011131	-44.428362	-82.505613	-174.542582			
25909	2286990	9.589878	-0.744048	0.888988	-0.206122	-0.182225	0.015908	-44.610817	-82.523437	-174.388329			
25910	2287015	9.577492	-0.776951	0.867603	-0.210015	-0.181834	0.016131	-44.793873	-82.541412	-174.231746			
25911	2287040	9.569188	-0.848316	0.834149	-0.208609	-0.189282	0.010121	-44.979274	-82.560408	-174.074894			
25912	2287065	9.545816	-0.862005	0.814156	-0.201608	-0.183281	0.006494	-45.157052	-82.579100	-173.924725			
25913	2287090	9.515620	-0.867331	0.767590	-0.197868	-0.181329	0.001070	-45.329384	-82.598087	-173.779514			
25914	2287115	9.541842	-0.889227	0.734346	-0.197966	-0.177556	0.004996	-45.502002	-82.616517	-173.631749			
25915	2287140	9.533602	-0.896036	0.718348	-0.194789	-0.174859	0.002229	-45.671283	-82.634625	-173.489182			
25916	2287165	9.514367	-0.878131	0.710443	-0.196028	-0.174047	0.000826	-45.839773	-82.652741	-173.347597			
25917	2287190	9.544680	-0.894573	0.695812	-0.193086	-0.168350	0.005597	-46.007734	-82.669746	-173.206126			
25918	2287215	9.588751	-0.884997	0.702466	-0.184587	-0.165862	0.005794	-46.172758	-82.686710	-173.064122			
25919	2287240	9.594220	-0.869950	0.725133	-0.179873	-0.169972	0.004946	-46.341062	-82.703837	-172.920408			
25920	2287265	9.583206	-0.883664	0.714424	-0.172780	-0.167969	0.011086	-46.512191	-82.720075	-172.772827			
25921	2287290	9.627163	-0.905809	0.750264	-0.167693	-0.173759	0.012910	-46.689441	-82.736636	-172.618346			
25922	2287315	9.660197	-0.905838	0.759597	-0.170216	-0.176412	0.010481	-46.867558	-82.753931	-172.461099			
25923	2287340	9.716663	-0.920946	0.750281	-0.166847	-0.178416	0.013179	-47.050272	-82.770796	-172.301000			
25924	2287365	9.752503	-0.942866	0.724964	-0.176525	-0.180559	0.010122	-47.234604	-82.788127	-172.140674			
25925	2287390	9.806321	-0.908388	0.699871	-0.185388	-0.183198	0.012149	-47.424795	-82.805434	-171.975728			
25926	2287415	9.829807	-0.889037	0.683992	-0.191815	-0.182633	0.006838	-47.611682	-82.823461	-171.812794			
25927	2287440	9.861484	-0.874018	0.689409	-0.199971	-0.183141	0.006205	-47.801080	-82.841257	-171.650765			
25928	2287465	9.898680	-0.869846	0.690764	-0.207259	-0.183651	0.009574	-47.995408	-82.858675	-171.484826			
25929	2287490	9.894646	-0.831299	0.673607	-0.216797	-0.181067	0.002459	-48.184335	-82.876536	-171.325713			
25930	2287515	9.904264	-0.820366	0.690920	-0.226773	-0.181927	0.003715	-48.376757	-82.894561	-171.162276			
25931	2287540	9.923500	-0.820440	0.704234	-0.233443	-0.179215	-0.003181	-48.563931	-82.912719	-171.007346			
25932	2287565	9.935895	-0.843740	0.692187	-0.238206	-0.174756	-0.000310	-48.750979	-82.930084	-170.853235			
25933	2287590	9.905503	-0.843885	0.729367	-0.232133	-0.179276	-0.006849	-48.936964	-82.948518	-170.699325			
25934	2287615	9.893082	-0.842559	0.740002	-0.228776	-0.180189	-0.003713	-49.126055	-82.966920	-170.539559			
25935	2287640	9.893022	-0.819288	0.778599	-0.231046	-0.182192	-0.005315	-49.317408	-82.985335	-170.380096			
25936	2287665	9.868143	-0.845527	0.798451	-0.228724	-0.186817	-0.018607	-49.503374	-83.005563	-170.225731			
25937	2287690	9.891461	-0.853910	0.838271	-0.217430	-0.190710	-0.017309	-49.693163	-83.025949	-170.065892			
25940	2287715	9.854245	-0.849829	0.851573	-0.220343	-0.196677	-0.027029	-49.881922	-83.048170	-169.905266			
25941	2287740	9.812887	-0.832062	0.879508	-0.217938	-0.200689	-0.029860	-50.073392	-83.070723	-169.743822			
25942	2287765	9.777006	-0.832156	0.907350	-0.217301	-0.206775	-0.034542	-50.267913	-83.094283	-169.579221			
25943	2287790	9.777095	-0.785362	0.898268	-0.220536	-0.204028	-0.034955	-50.461298	-83.117571	-169.416238			
25944	2287815	9.738446	-0.806040	0.919409	-0.230077	-0.208075	-0.040860	-50.656066	-83.142098	-169.250986			
25945	2287840	9.691563	-0.804760	0.943289	-0.237063	-0.211735	-0.038253	-50.858930	-83.166315	-169.080857			
25946	2287865	9.637724	-0.855724	0.965691	-0.250156	-0.203903	-0.041090	-51.055550	-83.190070	-168.918914			
25947	2287890	9.619704	-0.905332	0.986784	-0.264759	-0.202654	-0.039877	-51.255259	-83.213512	-168.755974			
25948	2287915	9.572851	-0.927283	0.977389	-0.281955	-0.201479	-0.043629	-51.454302	-83.237483	-168.593926			
25949	2287940	9.543842	-0.958997	0.994546	-0.288859	-0.193258	-0.037669	-51.652724	-83.259705	-168.435775			
25950	2287965	9.514799	-1.003067	1.016968	-0.298043	-0.186642	-0.040095	-51.845492	-83.281550	-168.284649			
25951	2287990	9.473358	-1.063622	1.034027	-0.306293	-0.185640	-0.041939	-52.038215	-83.303454	-168.134765			
25952	2288015	9.458039	-1.107809	1.076391	-0.310802	-0.179645	-0.043246	-52.225485	-83.325202	-167.988769			
25953	2288040	9.438690	-1.151839	1.074898	-0.311427	-0.173681	-0.037745	-52.412680	-83.345468	-167.845204			
25954	2288065	9.434451	-1.195871	1.092049	-0.312634	-0.170901	-0.031796	-52.602788	-83.364761	-167.698887			
25955	2288090	9.439910	-1.244000	1.087877	-0.320144	-0.163184	-0.037631	-52.783003	-83.383994	-167.563617			
25956	2288115	9.456283	-1.323831	1.102247	-0.326063	-0.155354	-0.036034	-52.958013	-83.402595	-167.432215			
25957	2288140	9.442460	-1.356824	1.102149	-0.325239	-0.147234	-0.027730	-53.132307	-83.419225	-167.303650			
25958	2288165	9.438147	-1.424365	1.132468	-0.327957	-0.139122	-0.024337	-53.302187	-83.434725	-167.179925			
25959	2288190	9.446389	-1.381820	1.163174	-0.330591	-0.134274	-0.025184	-53.467650	-83.449867	-167.061029			
25960	2288215	9.490374	-1.399848	1.193691	-0.326651	-0.130674	-0.019763	-53.633196	-83.464310	-166.939297			
25961	2288240	9.545300	-1.485168	1.206747	-0.327325	-0.127175	-0.017042	-53.798347	-83.477831	-166.820251			
25962	2288265	9.583688	-1.574643	1.227732	-0.335161	-0.121938	-0.014003	-53.962141	-83.490520	-166.703705			
25963	2288290	9.597423	-1.626848	1.210317	-0.339565	-0.112139	-0.017154	-54.114804	-83.502713	-166.598999			
25964	2288315	9.642794	-1.664034	1.222163	-0.343514	-0.111350	-0.008181	-54.273935	-83.514029	-166.486226			
25965	2288340	9.674328	-1.745221	1.229854	-0.347385	-0.106800	-0.011887	-54.427073	-83.525098	-166.382174			
25966	2288365	9.725193	-1.793424	1.243013	-0.343059	-0.100014	-0.006849	-54.576735	-83.534985	-166.280999			
25967	2288390	9.799518	-1.830524	1.237663	-0.338306	-0.096688	-0.010678	-54.719860	-83.545014	-166.185718			
25968	2288415	9.872421	-1.892449	1.234820	-0.326602	-0.086419	-0.007419	-54.853065	-83.554043	-166.096690			
25969	2288440	9.945392	-1.915819	1.233437	-0.323394	-0.089023	-0.002255	-54.992933	-83.562402	-166.002542			
25970	2288465	10.037752	-1.855316	1.233713	-0.312836	-0.080559	0.003970	-55.127292	-83.569310	-165.912417			
25971	2288490	10.181016	-1.886878	1.197804	-0.303027	-0.082873	0.007226	-55.265266	-83.576001	-165.817242			
25972	2288515	10.278851	-1.884063	1.184562	-0.301765	-0.077620	0.015920	-55.403774	-83.581460	-165.719388			
25973	2288540	10.368361	-1.862145	1.199328	-0.289798	-0.078663	0.019380	-55.544665	-83.586323	-165.619372			
25974	2288565	10.471723	-1.851075	1.176827	-0.281990	-0.080046	0.021034	-55.687265	-83.591075	-165.516512			
25975	2288590	10.564007	-1.864837	1.167522	-0.263876	-0.078586	0.025743	-55.829286	-83.595123	-165.411625			
25976	2288615	10.544827	-1.868767	1.122332	-0.253221	-0.079475	0.018728	-55.965584	-83.600283	-165.309083			
25977	2288640	10.539450	-1.882291	1.062520	-0.257330	-0.079261	0.016156	-56.100872	-83.605468	-165.210030			
25978	2288665	10.488415	-1.988064	1.027556	-0.268723	-0.074901	0.012194	-56.230528	-83.610750	-165.118287			
25979	2288690	10.435940	-2.071958	1.035225	-0.286098	-0.067487	0.014967	-56.356925	-83.615091	-165.032328			
25980	2288715	10.415102	-2.121659	1.077580	-0.299245	-0.070046	0.021774	-56.492671	-83.619028	-164.937079			
25981	2288740	10.241592	-2.162746	1.044119	-0.310056	-0.069995	0.024974	-56.632532	-83.622325	-164.841028			
25982	2288765	10.007358	-2.246553	1.042381	-0.317220	-0.065765	0.030355	-56.772787	-83.624619	-164.745612			
25983	2288790	9.921774	-2.307247	1.080670	-0.316025	-0.062889	0.026488	-56.907157	-83.627125	-164.655947			
25984	2288815	9.940944	-2.351303	1.104427	-0.312506	-0.064199	0.032988	-57.046893	-83.629147	-164.558728			
25985	2288840	9.838916	-2.417327	1.113461	-0.298738	-0.071166	0.034554	-57.193495	-83.631279	-164.454263			
25986	2288865	9.778081	-2.511003	1.150297	-0.276458	-0.079791	0.036889	-57.347927	-83.633766	-164.338710			
25987	2288890	9.714694	-2.537138	1.152822	-0.261161	-0.096536	0.034294	-57.516618	-83.637823	-164.206605			
25988	2288915	9.638973	-2.521966	1.148834	-0.240485	-0.108568	0.043401	-57.701772	-83.641858	-164.053462			
25989	2288940	9.608690	-2.521949	1.142180	-0.216736	-0.125721	0.052033	-57.908415	-83.645896	-163.876769			
25990	2288965	9.691385	-2.447768	1.158427	-0.191247	-0.144167	0.059418	-58.136828	-83.650361	-163.674500			
25991	2288990	9.679180	-2.377495	1.122761	-0.174434	-0.164063	0.063756	-58.387885	-83.655704	-163.447026			
25992	2289015	9.710994	-2.330629	1.096358	-0.151645	-0.184861	0.072065	-58.664529	-83.661660	-163.189175			
25993	2289040	9.676887	-2.238181	1.020943	-0.139976	-0.202274	0.083457	-58.966847	-83.667180	-162.905163			
25994	2289065	9.694889	-2.184511	1.007843	-0.127685	-0.218658	0.087118	-59.288518	-83.673282	-162.599913			
25995	2289090	9.809380	-2.119790	0.980201	-0.125816	-0.235571	0.100534	-59.638156	-83.678763	-162.266258			
25996	2289115	9.816411	-2.111320	0.924424	-0.133938	-0.243886	0.103769	-60.001008	-83.684393	-161.919251			
25997	2289140	9.868758	-2.129150	0.908460	-0.135882	-0.250304	0.109723	-60.375727	-83.689315	-161.561819			
25998	2289165	9.901896	-2.116670	0.879281	-0.151682	-0.256561	0.112772	-60.762274	-83.694037	-161.194768			
25999	2289190	9.929506	-2.130295	0.850015	-0.163440	-0.261314	0.114271	-61.157392	-83.698626	-160.820792			
26000	2289215	9.944650	-2.139911	0.842006	-0.170536	-0.263862	0.114281	-61.557125	-83.703271	-160.442083			
26001	2289240	9.899155	-2.149603	0.856569	-0.181422	-0.272568	0.120796	-61.972780	-83.707222	-160.050043			
26002	2289265	9.914373	-2.138506	0.836706	-0.182457	-0.277168	0.124915	-62.396849	-83.710643	-159.649690			
26003	2289290	9.941974	-2.176867	0.787440	-0.172000	-0.275783	0.136280	-62.824997	-83.712202	-159.243727			
26004	2289315	10.003959	-2.233126	0.746155	-0.166146	-0.269397	0.148371	-63.252376	-83.711626	-158.836701			
26005	2289340	10.145613	-2.354211	0.760427	-0.165232	-0.263208	0.163406	-63.680752	-83.708239	-158.429534			
26006	2289365	10.183991	-2.460163	0.774683	-0.164260	-0.257087	0.162520	-64.100864	-83.704251	-158.030536			
26007	2289390	10.255254	-2.570485	0.851438	-0.166743	-0.252715	0.163642	-64.516300	-83.699526	-157.636598			
26008	2289415	10.281197	-2.676515	0.886943	-0.191346	-0.260347	0.147983	-64.935304	-83.697125	-157.241770			
26009	2289440	10.239894	-2.720377	0.844297	-0.199483	-0.261584	0.133716	-65.348562	-83.696197	-156.854739			
26010	2289465	10.211074	-2.574742	0.892535	-0.203399	-0.266936	0.126465	-65.764709	-83.696223	-156.465363			
26011	2289490	10.226444	-2.439928	0.879752	-0.204590	-0.263661	0.127339	-66.177584	-83.695635	-156.079451			
26012	2289515	10.229246	-2.393262	0.890525	-0.212581	-0.263846	0.130954	-66.593980	-83.694405	-155.690452			
26013	2289540	10.167182	-2.364511	0.937120	-0.231473	-0.254044	0.139031	-67.004908	-83.691122	-155.310371			
26014	2289565	10.095443	-2.374295	0.988879	-0.238080	-0.239079	0.147401	-67.402632	-83.685609	-154.944524			
26015	2289590	10.088416	-2.360788	1.050023	-0.247434	-0.228734	0.154041	-67.791876	-83.678376	-154.588551			
26016	2289615	10.008420	-2.326631	1.115187	-0.262089	-0.220080	0.162725	-68.176581	-83.669375	-154.238675			
26017	2289640	9.987656	-2.329532	1.159047	-0.276682	-0.208689	0.162409	-68.548067	-83.659447	-153.904774			
26018	2289665	10.017835	-2.302286	1.220240	-0.287195	-0.197569	0.161305	-68.906078	-83.648853	-153.585938			
26019	2289690	9.999863	-2.261221	1.274840	-0.299539	-0.192827	0.164819	-69.260623	-83.637328	-153.272362			
26020	2289715	9.986021	-2.243491	1.314768	-0.308570	-0.195499	0.161006	-69.617194	-83.626335	-152.957565			
26021	2289740	10.035601	-2.203702	1.344164	-0.313659	-0.193827	0.165026	-69.972632	-83.614401	-152.645112			
26022	2289765	10.046685	-2.159708	1.340322	-0.305446	-0.192732	0.166041	-70.324759	-83.602064	-152.334800			
26023	2289790	10.072946	-2.141670	1.311174	-0.296555	-0.192875	0.169916	-70.676138	-83.588998	-152.023950			
26024	2289815	10.151484	-2.148530	1.292591	-0.277633	-0.194085	0.167282	-71.024255	-83.576223	-151.713249			
26025	2289840	10.260374	-2.148420	1.264749	-0.255696	-0.197162	0.156176	-71.366669	-83.564798	-151.405517			
26026	2289865	10.288174	-2.094519	1.186559	-0.229399	-0.192201	0.156571	-71.698346	-83.552892	-151.104792			
26027	2289890	10.277367	-2.094182	1.102854	-0.212348	-0.183542	0.156000	-72.015766	-83.540487	-150.815950			
26028	2289915	10.287107	-2.114638	1.048320	-0.189796	-0.170547	0.158767	-72.314652	-83.527037	-150.542177			
26029	2289940	10.314746	-2.089785	1.023189	-0.176168	-0.157280	0.154366	-72.592354	-83.513384	-150.288078			
26030	2289965	10.321872	-2.079827	0.932869	-0.167242	-0.140265	0.159937	-72.849285	-83.498111	-150.053589			
26031	2289990	10.277896	-2.108482	0.879554	-0.165415	-0.111471	0.162397	-73.071162	-83.481182	-149.854111			
26032	2290015	10.291633	-2.167524	0.855519	-0.164115	-0.088577	0.159279	-73.263663	-83.463716	-149.683764			
26033	2290040	10.331543	-2.199179	0.847411	-0.164461	-0.072102	0.166053	-73.437532	-83.444516	-149.532457			
26034	2290065	10.344054	-2.193496	0.807599	-0.170748	-0.056623	0.170362	-73.594411	-83.424045	-149.399153			
26035	2290090	10.375836	-2.220770	0.751710	-0.179811	-0.035529	0.165904	-73.725057	-83.403299	-149.293558			
26036	2290115	10.415831	-2.244043	0.710431	-0.192979	-0.019100	0.164458	-73.837309	-83.382125	-149.208226			
26037	2290140	10.476459	-2.234390	0.701211	-0.201415	-0.005426	0.159244	-73.931750	-83.361051	-149.142186			
26038	2290165	10.575762	-2.195790	0.673480	-0.205325	0.006637	0.158004	-74.011599	-83.339658	-149.091397			
26039	2290190	10.587010	-2.163877	0.601838	-0.209828	0.016096	0.157583	-74.080411	-83.317944	-149.052367			
26042	2290215	10.571992	-2.147214	0.554070	-0.219366	0.029457	0.157049	-74.134851	-83.295822	-149.029129			
26043	2290240	10.538962	-2.156762	0.535376	-0.231546	0.043337	0.160874	-74.175379	-83.272580	-149.021708			
26044	2290265	10.527954	-2.142999	0.546060	-0.239411	0.052620	0.161308	-74.206201	-83.248916	-149.025195			
26045	2290290	10.489341	-2.148569	0.560633	-0.242442	0.057639	0.159377	-74.230904	-83.225323	-149.035281			
26046	2290315	10.424712	-2.114104	0.539444	-0.260252	0.068590	0.155230	-74.244547	-83.201914	-149.059113			
26047	2290340	10.398497	-2.121031	0.556677	-0.272639	0.075236	0.150436	-74.250319	-83.178869	-149.092621			
26048	2290365	10.399830	-2.129344	0.569914	-0.280006	0.065377	0.148611	-74.267971	-83.156460	-149.115230			
26049	2290390	10.457622	-2.148629	0.581889	-0.293396	0.066969	0.151102	-74.286535	-83.133647	-149.138851			
26050	2290415	10.489299	-2.140423	0.584505	-0.297244	0.060441	0.150007	-74.313234	-83.111269	-149.154963			
26051	2290440	10.496339	-2.070190	0.563530	-0.299893	0.053027	0.145741	-74.346884	-83.089737	-149.164328			
26052	2290465	10.438502	-2.094870	0.544816	-0.314206	0.046092	0.142972	-74.389496	-83.068855	-149.166732			
26053	2290490	10.408102	-2.126585	0.571249	-0.317101	0.039825	0.142379	-74.439307	-83.048297	-149.162302			
26054	2290515	10.423199	-2.165088	0.567179	-0.310883	0.028318	0.138825	-74.500417	-83.028692	-149.145803			
26055	2290540	10.467245	-2.191216	0.564453	-0.313447	0.023922	0.143440	-74.567587	-83.008594	-149.123355			
26056	2290565	10.456012	-2.276620	0.596045	-0.307477	0.013433	0.135441	-74.642956	-82.989995	-149.091785			
26057	2290590	10.450414	-2.350857	0.593149	-0.312065	0.002141	0.128438	-74.729207	-82.972786	-149.049912			
26058	2290615	10.414540	-2.353683	0.611723	-0.309642	-0.011937	0.123018	-74.829389	-82.956860	-148.993962			
26059	2290640	10.355223	-2.419702	0.614101	-0.316000	-0.020553	0.115490	-74.937000	-82.942272	-148.931131			
26060	2290665	10.318001	-2.466418	0.608642	-0.312965	-0.030541	0.123066	-75.057224	-82.926990	-148.855150			
26061	2290690	10.264049	-2.580683	0.629501	-0.298657	-0.038424	0.119059	-75.182575	-82.912533	-148.771936			
26062	2290715	10.226729	-2.637133	0.649203	-0.279994	-0.052218	0.113447	-75.319035	-82.899334	-148.675264			
26063	2290740	10.182568	-2.689411	0.656975	-0.249633	-0.060464	0.108114	-75.457839	-82.887143	-148.571411			
26064	2290765	10.097167	-2.747035	0.631517	-0.219846	-0.074337	0.106640	-75.606941	-82.875620	-148.452877			
26065	2290790	10.062647	-2.817132	0.624607	-0.177930	-0.075924	0.094734	-75.748016	-82.865769	-148.336380			
26066	2290815	10.043341	-2.824046	0.632539	-0.131389	-0.082946	0.091115	-75.889368	-82.856618	-148.213464			
26067	2290840	10.037766	-2.820021	0.660459	-0.086096	-0.090447	0.089329	-76.031194	-82.847951	-148.082948			
26068	2290865	10.004593	-2.858613	0.685576	-0.036034	-0.096650	0.081293	-76.170200	-82.840575	-147.948044			
26069	2290890	9.932856	-2.928776	0.697249	0.015882	-0.112222	0.071251	-76.316022	-82.835085	-147.798774			
26070	2290915	9.864013	-2.909523	0.694592	0.057794	-0.126190	0.056754	-76.467757	-82.832007	-147.638231			
26071	2290940	9.825491	-2.886129	0.696013	0.094792	-0.132349	0.042209	-76.616510	-82.831137	-147.474612			
26072	2290965	9.802104	-2.850382	0.709398	0.117491	-0.135702	0.030275	-76.762580	-82.831988	-147.310420			
26073	2290990	9.749747	-2.811991	0.734734	0.145999	-0.135548	0.018261	-76.901334	-82.834459	-147.149488			
26074	2291015	9.701566	-2.746095	0.766808	0.160310	-0.137779	-0.004378	-77.035388	-82.840069	-146.992116			
26075	2291040	9.656121	-2.666476	0.814899	0.174181	-0.138310	-0.008264	-77.166735	-82.846238	-146.834584			
26076	2291065	9.643801	-2.538747	0.853831	0.186485	-0.143027	-0.010636	-77.301228	-82.852841	-146.672106			
26077	2291090	9.696279	-2.412279	0.870239	0.189929	-0.150122	-0.002486	-77.445444	-82.858479	-146.499336			
26078	2291115	9.703345	-2.335206	0.842571	0.185356	-0.151274	-0.002775	-77.592330	-82.864080	-146.325533			
26079	2291140	9.696486	-2.292619	0.856010	0.173703	-0.154388	0.013231	-77.747957	-82.867537	-146.143607			
26080	2291165	9.692311	-2.299525	0.873240	0.166838	-0.153042	0.025034	-77.906053	-82.869239	-145.960187			
26081	2291190	9.675707	-2.288689	0.903843	0.149426	-0.158708	0.041258	-78.076906	-82.868771	-145.766423			
26082	2291215	9.664661	-2.302434	0.915722	0.138088	-0.166769	0.047830	-78.260456	-82.867476	-145.562582			
26083	2291240	9.610986	-2.270784	0.915812	0.111985	-0.163518	0.049521	-78.443882	-82.865837	-145.361550			
26084	2291265	9.587472	-2.347789	0.915530	0.092387	-0.170636	0.046454	-78.637319	-82.864749	-145.153258			
26085	2291290	9.546389	-2.361145	0.811858	0.076762	-0.163728	0.037700	-78.823237	-82.864611	-144.954800			
26086	2291315	9.443111	-2.454399	0.747738	0.047225	-0.136212	0.021850	-78.979522	-82.865789	-144.791647			
26087	2291340	9.348023	-2.450357	0.776914	0.023670	-0.100794	0.012502	-79.096888	-82.867348	-144.669940			
26088	2291365	9.284708	-2.292465	0.850473	0.041601	-0.089505	-0.015770	-79.192973	-82.872552	-144.567092			
26089	2291390	9.195289	-2.142711	0.902730	0.063896	-0.073472	-0.030382	-79.264831	-82.879364	-144.485443			
26090	2291415	9.136099	-2.009554	0.965585	0.080819	-0.071891	-0.046168	-79.329771	-82.888253	-144.409584			
26091	2291440	9.092080	-1.884593	1.024423	0.099882	-0.071242	-0.052102	-79.389672	-82.898041	-144.334793			
26092	2291465	9.008153	-1.826824	1.020587	0.117265	-0.070323	-0.044809	-79.447763	-82.906768	-144.259318			
26093	2291490	8.924030	-1.837960	1.057676	0.116755	-0.077203	-0.051087	-79.512573	-82.916550	-144.177147			
26094	2291515	8.859305	-1.804989	1.075032	0.115252	-0.086762	-0.045264	-79.590326	-82.925648	-144.083450			
26095	2291540	8.798685	-1.829728	1.070923	0.099817	-0.099349	-0.041828	-79.685078	-82.934667	-143.973556			
26096	2291565	8.707679	-1.897104	1.077274	0.083019	-0.115226	-0.040559	-79.800841	-82.943888	-143.844917			
26097	2291590	8.648371	-1.932894	1.087733	0.065129	-0.131831	-0.048740	-79.936776	-82.954646	-143.698537			
26098	2291615	8.596062	-1.935607	1.078423	0.052562	-0.149228	-0.054468	-80.094110	-82.966491	-143.533755			
26099	2291640	8.550754	-1.881851	1.055972	0.026724	-0.168872	-0.065754	-80.275578	-82.980455	-143.347049			
26100	2291665	8.548132	-1.848685	1.017572	0.014190	-0.188664	-0.065327	-80.482408	-82.994756	-143.136603			
26101	2291690	8.523348	-1.858329	1.012185	-0.004645	-0.201803	-0.073394	-80.706415	-83.010407	-142.911577			
26102	2291715	8.490282	-1.904969	0.988112	-0.013480	-0.223513	-0.076362	-80.957621	-83.026744	-142.661820			
26103	2291740	8.488958	-1.941938	0.944116	-0.031847	-0.239635	-0.086640	-81.229130	-83.044870	-142.392880			
26104	2291765	8.429814	-1.980260	0.893467	-0.055647	-0.255719	-0.098990	-81.522041	-83.064929	-142.105825			
26105	2291790	8.387242	-1.977303	0.840331	-0.067872	-0.268216	-0.114039	-81.830462	-83.087198	-141.804922			
26106	2291815	8.328108	-1.967541	0.813741	-0.086871	-0.273682	-0.125536	-82.148451	-83.110883	-141.498592			
26107	2291840	8.285414	-2.004584	0.789676	-0.082213	-0.282998	-0.127901	-82.478213	-83.134998	-141.178293			
26108	2291865	8.255047	-2.038990	0.800174	-0.082916	-0.289725	-0.141028	-82.816361	-83.160877	-140.849666			
26109	2291890	8.239777	-2.041911	0.840027	-0.081454	-0.299133	-0.145637	-83.167358	-83.187340	-140.507905			
26110	2291915	8.205285	-2.051597	0.865223	-0.074260	-0.308982	-0.165418	-83.529383	-83.216392	-140.155549			
26111	2291940	8.141903	-2.048880	0.877136	-0.065358	-0.328547	-0.176872	-83.914976	-83.247243	-139.776670			
26112	2291965	8.023402	-2.064048	0.891624	-0.055654	-0.339490	-0.188777	-84.314462	-83.279644	-139.382425			
26113	2291990	7.954368	-2.130176	0.921944	-0.047399	-0.350852	-0.206839	-84.728376	-83.314447	-138.972489			
26114	2292015	7.933477	-2.223832	0.957505	-0.036255	-0.365149	-0.220689	-85.161257	-83.350906	-138.543492			
26115	2292040	7.938871	-2.229503	1.003978	-0.026597	-0.388609	-0.240372	-85.624317	-83.390199	-138.081142			
26116	2292065	7.869984	-2.211707	1.029236	-0.017409	-0.405856	-0.250815	-86.112070	-83.430718	-137.592647			
26117	2292090	7.831309	-2.239301	1.055694	-0.015639	-0.426583	-0.263719	-86.630531	-83.472776	-137.073028			
26118	2292115	7.810457	-2.306814	1.090028	-0.020877	-0.451575	-0.284342	-87.186734	-83.517261	-136.517925			
26119	2292140	7.784171	-2.311131	1.136485	-0.023951	-0.466083	-0.292411	-87.768889	-83.562522	-135.935493			
26120	2292165	7.793652	-2.347071	1.177544	-0.019407	-0.493431	-0.299577	-88.393258	-83.608248	-135.309980			
26121	2292190	7.803088	-2.410500	1.223875	-0.012636	-0.514303	-0.309527	-89.052237	-83.654679	-134.648722			
26122	2292215	7.792087	-2.447526	1.198490	-0.011696	-0.543970	-0.309873	-89.759208	-83.700155	-133.940906			
26123	2292240	7.786621	-2.473552	1.166529	-0.013784	-0.566411	-0.314374	-90.506047	-83.745445	-133.191540			
26124	2292265	7.794934	-2.469350	1.154563	-0.028072	-0.586665	-0.319162	-91.292506	-83.790275	-132.404443			
26125	2292290	7.837646	-2.443240	1.154692	-0.044891	-0.600506	-0.331140	-92.111585	-83.835560	-131.587024			
26126	2292315	7.806030	-2.433563	1.134780	-0.054275	-0.618194	-0.330436	-92.967332	-83.879154	-130.736061			
26127	2292340	7.827907	-2.490080	1.171821	-0.055356	-0.631875	-0.334807	-93.854221	-83.922048	-129.852089			
26128	2292365	7.874722	-2.481874	1.177171	-0.063851	-0.645714	-0.341834	-94.774160	-83.964312	-128.936175			
26129	2292390	7.965539	-2.501218	1.195787	-0.063610	-0.661546	-0.345048	-95.728680	-84.005239	-127.985524			
26130	2292415	8.059247	-2.494263	1.182577	-0.054382	-0.674673	-0.350156	-96.713043	-84.044802	-127.005635			
26131	2292440	8.147314	-2.517744	1.193203	-0.051899	-0.681542	-0.356342	-97.720846	-84.083534	-125.999865			
26132	2292465	8.243751	-2.514975	1.189267	-0.036484	-0.693543	-0.358355	-98.756297	-84.120445	-124.964149			
26133	2292490	8.327673	-2.542540	1.201173	-0.032623	-0.692463	-0.358960	-99.802574	-84.155526	-123.917061			
26134	2292515	8.419983	-2.526063	1.201324	-0.014359	-0.700481	-0.355448	-100.868031	-84.187724	-122.850263			
26135	2292540	8.468244	-2.491708	1.200102	-0.008988	-0.703234	-0.351402	-101.947502	-84.217443	-121.766529			
26136	2292565	8.571580	-2.480670	1.185630	-0.003758	-0.698419	-0.341979	-103.027308	-84.243925	-120.681758			
26137	2292590	8.678921	-2.543950	1.178813	-0.000691	-0.700426	-0.335863	-104.116926	-84.267420	-119.586732			
26138	2292615	8.778032	-2.555013	1.193466	-0.009085	-0.696422	-0.334279	-105.209294	-84.288536	-118.492436			
26139	2292640	8.917098	-2.588000	1.186799	-0.015651	-0.688687	-0.327101	-106.297701	-84.307090	-117.400862			
26140	2292665	9.060322	-2.634740	1.162789	-0.028075	-0.684753	-0.318384	-107.385449	-84.322549	-116.311770			
26141	2292690	9.231161	-2.636034	1.135018	-0.040376	-0.676869	-0.310744	-108.466207	-84.335270	-115.231500			
26144	2292715	9.393821	-2.618023	1.087290	-0.061235	-0.666756	-0.299874	-109.534174	-84.344770	-114.169463			
26145	2292740	9.594915	-2.627657	1.074127	-0.079608	-0.662814	-0.287466	-110.597569	-84.351055	-113.112322			
26146	2292765	9.745193	-2.606895	1.026441	-0.107250	-0.649390	-0.266130	-111.637437	-84.353269	-112.082812			
26147	2292790	9.936721	-2.564204	1.010747	-0.134733	-0.631231	-0.248411	-112.647552	-84.352300	-111.087155			
26148	2292815	10.135107	-2.527109	1.010970	-0.170125	-0.616945	-0.237976	-113.635585	-84.348835	-110.121240			
26149	2292840	10.372139	-2.482979	0.971419	-0.214694	-0.598623	-0.219882	-114.595065	-84.342672	-109.187965			
26150	2292865	10.571916	-2.496645	0.934256	-0.269899	-0.581652	-0.210941	-115.532454	-84.334858	-108.284822			
26151	2292890	10.788213	-2.474606	0.911875	-0.329895	-0.559354	-0.192972	-116.435348	-84.324699	-107.424966			
26152	2292915	10.917530	-2.496797	0.961024	-0.379913	-0.548974	-0.179987	-117.318457	-84.312015	-106.594727			
26153	2292940	11.070386	-2.459817	0.989143	-0.422965	-0.539741	-0.174239	-118.189935	-84.298171	-105.779805			
26154	2292965	11.230272	-2.437688	0.958763	-0.463772	-0.525318	-0.171398	-119.042970	-84.283743	-104.989271			
26155	2292990	11.348752	-2.467832	0.920229	-0.495322	-0.511702	-0.174247	-119.881386	-84.269471	-104.217950			
26156	2293015	11.472784	-2.510267	0.865666	-0.517562	-0.499119	-0.185266	-120.709436	-84.256142	-103.462863			
26157	2293040	11.562287	-2.559709	0.845611	-0.526129	-0.492595	-0.189769	-121.532354	-84.242968	-102.711518			
26158	2293065	11.657219	-2.609241	0.854795	-0.520805	-0.480665	-0.199242	-122.343659	-84.230776	-101.971062			
26159	2293090	11.778255	-2.687749	0.875906	-0.504479	-0.484133	-0.219393	-123.168907	-84.219682	-101.214226			
26160	2293115	11.891271	-2.719214	0.820030	-0.478098	-0.473991	-0.235163	-123.985528	-84.209979	-100.464976			
26161	2293140	11.972497	-2.790649	0.794606	-0.450415	-0.479364	-0.249517	-124.815450	-84.200651	-99.695632			
26162	2293165	12.053702	-2.868926	0.767795	-0.414655	-0.480141	-0.263624	-125.649991	-84.191782	-98.916483			
26163	2293190	12.097870	-2.882515	0.721265	-0.378773	-0.476043	-0.276336	-126.482767	-84.183586	-98.133931			
26164	2293215	12.095127	-2.915455	0.695935	-0.344603	-0.478868	-0.294325	-127.324192	-84.175849	-97.340599			
26165	2293240	12.095155	-2.982648	0.643839	-0.298214	-0.476654	-0.304106	-128.165188	-84.168427	-96.538164			
26166	2293265	12.113141	-2.994875	0.605304	-0.274229	-0.475738	-0.321038	-129.014420	-84.161781	-95.723985			
26167	2293290	12.091280	-2.995972	0.538850	-0.248782	-0.474237	-0.337072	-129.870711	-84.155815	-94.899038			
26168	2293315	12.143740	-2.991716	0.480436	-0.235038	-0.469489	-0.351167	-130.728209	-84.150379	-94.073876			
26169	2293340	12.225120	-2.980547	0.446002	-0.225236	-0.462368	-0.353247	-131.579825	-84.144771	-93.250220			
26170	2293365	12.257061	-2.900584	0.385143	-0.217544	-0.451019	-0.362448	-132.425530	-84.139987	-92.431392			
26171	2293390	12.300052	-2.760176	0.340429	-0.217776	-0.440917	-0.354405	-133.251794	-84.134123	-91.632133			
26172	2293415	12.279712	-2.625223	0.294386	-0.212045	-0.421889	-0.347151	-134.046382	-84.128050	-90.866999			
26173	2293440	12.343164	-2.589335	0.269311	-0.219961	-0.395450	-0.341269	-134.811504	-84.123138	-90.129502			
26174	2293465	12.420569	-2.529978	0.203106	-0.233120	-0.369550	-0.337966	-135.548631	-84.119535	-89.422039			
26175	2293490	12.448539	-2.353674	0.131991	-0.250524	-0.341579	-0.328745	-136.251111	-84.116980	-88.751907			
26176	2293515	12.483537	-2.159333	0.019717	-0.276439	-0.298218	-0.329809	-136.913316	-84.118050	-88.129207			
26177	2293540	12.607928	-1.954220	-0.037997	-0.316669	-0.254087	-0.319567	-137.532718	-84.122216	-87.552120			
26178	2293565	12.807924	-1.815196	-0.081255	-0.362664	-0.198431	-0.305194	-138.092827	-84.130298	-87.041268			
26179	2293590	12.998204	-1.736681	-0.120723	-0.400920	-0.149193	-0.299819	-138.608782	-84.142647	-86.580321			
26180	2293615	13.207824	-1.653944	-0.190765	-0.452618	-0.095251	-0.284602	-139.065247	-84.158816	-86.189886			
26181	2293640	13.440765	-1.613885	-0.238324	-0.483553	-0.051124	-0.282399	-139.489259	-84.179420	-85.833285			
26182	2293665	13.655922	-1.529767	-0.313660	-0.517304	-0.000015	-0.275403	-139.866840	-84.204703	-85.528228			
26183	2293690	13.947972	-1.583201	-0.381403	-0.529303	0.047292	-0.272349	-140.202840	-84.234706	-85.266706			
26184	2293715	14.193209	-1.675065	-0.471947	-0.546649	0.091994	-0.273338	-140.501417	-84.269429	-85.048596			
26185	2293740	14.394413	-1.772329	-0.578433	-0.543848	0.138994	-0.276135	-140.766705	-84.309654	-84.860265			
26186	2293765	14.541896	-1.851750	-0.678279	-0.526360	0.177564	-0.277354	-140.998903	-84.354194	-84.702684			
26187	2293790	14.648415	-1.896400	-0.894943	-0.516842	0.223155	-0.271732	-141.184661	-84.403253	-84.590410			
26188	2293815	14.703723	-1.907006	-0.990618	-0.502972	0.271916	-0.259043	-141.307731	-84.456436	-84.542494			
26189	2293840	14.671957	-1.988120	-0.998880	-0.483631	0.312270	-0.263999	-141.401712	-84.514722	-84.517666			
26190	2293865	14.465337	-2.033387	-1.007077	-0.461710	0.353642	-0.264189	-141.455136	-84.577655	-84.530425			
26191	2293890	14.215932	-2.092558	-0.994196	-0.430253	0.390384	-0.261317	-141.466106	-84.644448	-84.581302			
26192	2293915	13.959718	-2.102205	-0.975761	-0.376065	0.415553	-0.268602	-141.449287	-84.714549	-84.655759			
26193	2293940	13.673321	-2.000454	-0.941053	-0.317223	0.445281	-0.274321	-141.404754	-84.788649	-84.746101			
26194	2293965	13.395241	-1.832834	-0.888899	-0.268848	0.465663	-0.286272	-141.345870	-84.866091	-84.843885			
26195	2293990	13.084173	-1.669092	-0.871284	-0.224784	0.482391	-0.294699	-141.271919	-84.946148	-84.950446			
26196	2294015	12.865389	-1.554909	-0.889657	-0.178877	0.486946	-0.305449	-141.193212	-85.027493	-85.058738			
26197	2294040	12.615068	-1.344368	-0.895756	-0.150238	0.485982	-0.326662	-141.140354	-85.110797	-85.133384			
26198	2294065	12.362003	-1.155801	-0.925877	-0.136538	0.474383	-0.334859	-141.106584	-85.193540	-85.186894			
26199	2294090	12.147638	-0.909420	-0.975652	-0.127533	0.467986	-0.345641	-141.091492	-85.276538	-85.220361			
26200	2294115	11.943044	-0.675132	-1.090589	-0.127448	0.469796	-0.339557	-141.060540	-85.359012	-85.273336			
26201	2294140	11.717669	-0.460314	-1.156456	-0.134456	0.480226	-0.326572	-141.003931	-85.441652	-85.349441			
26202	2294165	11.477146	-0.161727	-1.180833	-0.138749	0.483146	-0.302972	-140.908609	-85.522479	-85.464988			
26203	2294190	11.316281	0.025301	-1.180315	-0.132819	0.491937	-0.271681	-140.753058	-85.601432	-85.640080			
26204	2294215	11.204921	0.140905	-1.190593	-0.130157	0.505532	-0.240167	-140.523705	-85.678801	-85.892370			
26205	2294240	11.115657	0.249755	-1.236800	-0.146817	0.521587	-0.212231	-140.231725	-85.755485	-86.206248			
26206	2294265	11.025068	0.346263	-1.298980	-0.173773	0.546171	-0.179370	-139.851983	-85.831706	-86.611965			
26207	2294290	11.041866	0.505917	-1.311742	-0.217322	0.570150	-0.157985	-139.400184	-85.908343	-87.096142			
26208	2294315	11.005023	0.721851	-1.319010	-0.247969	0.591654	-0.138469	-138.871119	-85.984991	-87.665642			
26209	2294340	10.958301	0.826327	-1.305415	-0.271064	0.611289	-0.111468	-138.260121	-86.060978	-88.317027			
26210	2294365	10.912867	0.874444	-1.290707	-0.294122	0.625059	-0.091058	-137.576067	-86.135954	-89.044889			
26211	2294390	10.852352	0.888333	-1.313262	-0.327374	0.633781	-0.079538	-136.837939	-86.210105	-89.831655			
26212	2294415	10.830828	1.031810	-1.435039	-0.369753	0.644332	-0.066565	-136.033869	-86.283160	-90.693920			
26213	2294440	10.798222	1.199946	-1.510248	-0.425640	0.654662	-0.060546	-135.183877	-86.356053	-91.606754			
26214	2294465	10.781883	1.312770	-1.521815	-0.487618	0.668615	-0.060159	-134.283550	-86.429410	-92.578844			
26215	2294490	10.761347	1.355524	-1.546949	-0.559299	0.677210	-0.064217	-133.346471	-86.503050	-93.597966			
26216	2294515	10.691448	1.603011	-1.539572	-0.620206	0.675033	-0.061339	-132.370697	-86.574904	-94.667764			
26217	2294540	10.640823	1.749073	-1.596205	-0.692557	0.678732	-0.063561	-131.363799	-86.646442	-95.775793			
26218	2294565	10.755442	1.830453	-1.674327	-0.780368	0.674959	-0.063348	-130.330764	-86.716426	-96.922522			
26219	2294590	10.787653	2.011015	-1.777340	-0.881221	0.667721	-0.052407	-129.261971	-86.783313	-98.119457			
26220	2294615	10.546730	2.126506	-1.735799	-0.982657	0.674322	-0.046697	-128.132854	-86.848617	-99.394341			
26221	2294640	10.158180	2.278671	-1.588144	-1.089281	0.664547	-0.061934	-127.018722	-86.913630	-100.666376			
26222	2294665	9.835005	2.584067	-1.595257	-1.176623	0.651233	-0.057182	-125.888210	-86.975593	-101.967267			
26223	2294690	9.641183	2.741087	-1.656000	-1.266707	0.639876	-0.054467	-124.742058	-87.034909	-103.296668			
26224	2294715	9.426731	3.010588	-1.633977	-1.332135	0.636733	-0.024311	-123.511792	-87.088720	-104.722408			
26225	2294740	9.301444	3.186335	-1.555148	-1.388065	0.632377	0.019433	-122.188561	-87.135519	-106.246391			
26226	2294765	9.375640	3.286181	-1.415242	-1.426854	0.612282	0.082107	-120.781852	-87.171316	-107.859464			
26227	2294790	9.478793	3.360036	-1.319288	-1.458607	0.563723	0.152789	-119.365056	-87.192880	-109.487149			
26228	2294815	9.578810	3.219360	-1.200138	-1.481668	0.494774	0.216775	-118.016777	-87.199507	-111.051993			
26229	2294840	9.816665	3.086924	-1.119424	-1.497483	0.401339	0.267650	-116.845806	-87.192039	-112.439116			
26230	2294865	10.065667	2.921827	-1.109193	-1.508024	0.296068	0.302541	-115.915439	-87.172150	-113.586871			
26231	2294890	10.273396	2.766351	-1.102965	-1.514782	0.187011	0.324653	-115.258008	-87.141878	-114.462347			
26232	2294915	10.380741	2.629050	-1.167156	-1.508259	0.082977	0.339055	-114.864158	-87.102826	-115.075174			
26233	2294940	10.468997	2.552363	-1.255039	-1.490032	-0.012152	0.338774	-114.725613	-87.058157	-115.427598			
26234	2294965	10.445677	2.471574	-1.344293	-1.463678	-0.096767	0.333715	-114.807530	-87.009061	-115.555501			
26235	2294990	10.319080	2.397582	-1.422971	-1.430879	-0.154641	0.322978	-115.039286	-86.957884	-115.528657			
26236	2295015	10.151193	2.312709	-1.522946	-1.380467	-0.198592	0.313313	-115.373665	-86.905091	-115.393742			
26237	2295040	10.095002	2.271976	-1.661319	-1.323306	-0.216751	0.301793	-115.749857	-86.852800	-115.206814			
26238	2295065	10.016773	2.240873	-1.788963	-1.257519	-0.208674	0.285047	-116.107724	-86.803108	-115.028792			
26239	2295090	9.890220	2.158715	-1.890262	-1.183171	-0.181322	0.279132	-116.391522	-86.755854	-114.914281			
26240	2295115	9.771894	2.067021	-1.991567	-1.092087	-0.131755	0.269272	-116.555302	-86.712844	-114.908653			
26241	2295140	9.783077	1.958835	-2.119454	-0.982768	-0.060992	0.258344	-116.559169	-86.675926	-115.045776			
26242	2295165	9.824484	1.871106	-2.206050	-0.864926	0.020722	0.237778	-116.391331	-86.646852	-115.337993			
26243	2295190	9.835602	1.764224	-2.304715	-0.736584	0.117521	0.222348	-116.014580	-86.625803	-115.821076			
26246	2295215	9.885124	1.676319	-2.332851	-0.614557	0.224990	0.197479	-115.415730	-86.614252	-116.510756			
26247	2295240	9.947024	1.614401	-2.334342	-0.488226	0.349046	0.178723	-114.551001	-86.612275	-117.447045			
26248	2295265	9.985305	1.522011	-2.270839	-0.365058	0.468443	0.152397	-113.430265	-86.619739	-118.622112			
26249	2295290	9.986336	1.436431	-2.187458	-0.243646	0.583606	0.128913	-112.049550	-86.635167	-120.040174			
26250	2295315	10.028598	1.353467	-2.058799	-0.135693	0.691076	0.103050	-110.416195	-86.657282	-121.697309			
26251	2295340	10.077584	1.297647	-1.855721	-0.038618	0.786545	0.076672	-108.546523	-86.684694	-123.575673			
26252	2295365	10.064628	1.276180	-1.632565	0.061132	0.869654	0.049552	-106.453964	-86.715607	-125.662927			
26253	2295390	10.074939	1.258665	-1.364276	0.163378	0.931381	0.024188	-104.174940	-86.747755	-127.922214			
26254	2295415	10.056419	1.213839	-1.145218	0.263649	0.968516	-0.004341	-101.762075	-86.779645	-130.302501			
26255	2295440	10.080634	1.181395	-0.936740	0.362286	0.982465	-0.031655	-99.267586	-86.810104	-132.748913			
26256	2295465	10.073201	1.180589	-0.713510	0.440531	0.986988	-0.054750	-96.714393	-86.837877	-135.242826			
26257	2295490	10.035593	1.192329	-0.547441	0.523336	0.967153	-0.077733	-94.165698	-86.862480	-137.720292			
26258	2295515	10.008988	1.210855	-0.350758	0.581847	0.944861	-0.092155	-91.633786	-86.882807	-140.173755			
26259	2295540	10.081730	1.241977	-0.229764	0.623748	0.901674	-0.107883	-89.181201	-86.899624	-142.540468			
26260	2295565	10.168168	1.262069	-0.088757	0.634243	0.850547	-0.115228	-86.839623	-86.912364	-144.794474			
26261	2295590	10.136090	1.232621	0.057259	0.624153	0.795844	-0.123189	-84.627233	-86.921979	-146.920528			
26262	2295615	10.073781	1.193720	0.164713	0.618553	0.732714	-0.114246	-82.575811	-86.926968	-148.887242			
26263	2295640	10.131181	1.065325	0.274624	0.586677	0.660430	-0.096361	-80.722445	-86.927430	-150.659112			
26264	2295665	10.190098	1.020988	0.366140	0.544892	0.578238	-0.071579	-79.103995	-86.923580	-152.201724			
26265	2295690	10.251907	0.994631	0.420593	0.473786	0.493753	-0.044611	-77.735672	-86.916220	-153.504055			
26266	2295715	10.349600	1.005412	0.463210	0.372000	0.412862	-0.007044	-76.621162	-86.904588	-154.567710			
26267	2295740	10.467782	0.952807	0.540155	0.251608	0.322206	0.033674	-75.790020	-86.889499	-155.363971			
26268	2295765	10.567818	0.810713	0.659319	0.118171	0.227635	0.076321	-75.254281	-86.871370	-155.883545			
26269	2295790	10.666718	0.747200	0.721634	-0.032537	0.132349	0.116998	-75.013396	-86.850919	-156.129451			
26270	2295815	10.643237	0.727835	0.741471	-0.183776	0.025579	0.155452	-75.090131	-86.829002	-156.079678			
26271	2295840	10.547067	0.814680	0.693869	-0.338231	-0.067806	0.194950	-75.445251	-86.805075	-155.772525			
26272	2295865	10.408118	0.847859	0.656729	-0.473839	-0.154699	0.230718	-76.051555	-86.779104	-155.233240			
26273	2295890	10.342159	0.828865	0.587527	-0.584893	-0.236723	0.293370	-76.902110	-86.746773	-154.465230			
26274	2295915	10.324459	0.731736	0.447713	-0.700222	-0.307177	0.335755	-77.947237	-86.709941	-153.519413			
26275	2295940	10.247399	0.605659	0.340984	-0.810461	-0.367530	0.366630	-79.145958	-86.669500	-152.434965			
26276	2295965	10.139738	0.388524	0.313665	-0.902418	-0.423703	0.396694	-80.476774	-86.624871	-151.231342			
26277	2295990	10.022466	0.138491	0.245009	-0.977755	-0.466977	0.415339	-81.893642	-86.576876	-149.952269			
26278	2296015	9.971547	-0.052157	0.119441	-1.035023	-0.510055	0.423479	-83.383945	-86.526556	-148.608245			
26279	2296040	9.855825	-0.251185	0.016375	-1.069588	-0.540489	0.428747	-84.909443	-86.473871	-147.233383			
26280	2296065	9.736013	-0.439166	-0.098548	-1.082455	-0.573837	0.425111	-86.468873	-86.419823	-145.826290			
26281	2296090	9.643836	-0.532280	-0.195906	-1.072287	-0.591623	0.425516	-88.021925	-86.363492	-144.424044			
26282	2296115	9.479933	-0.585742	-0.228109	-1.043374	-0.611532	0.414406	-89.568793	-86.306396	-143.024208			
26283	2296140	9.287072	-0.639312	-0.237660	-1.008547	-0.624396	0.400923	-91.093630	-86.248891	-141.640909			
26284	2296165	9.138311	-0.735359	-0.289861	-0.966466	-0.626219	0.386858	-92.572961	-86.191057	-140.297082			
26285	2296190	9.103842	-0.808112	-0.316716	-0.907225	-0.629495	0.370780	-94.010136	-86.133260	-138.986911			
26286	2296215	9.078977	-0.849406	-0.312878	-0.834374	-0.636000	0.345303	-95.414181	-86.076819	-137.699869			
26287	2296240	9.063752	-0.844014	-0.282287	-0.752622	-0.641853	0.325473	-96.784589	-86.021061	-136.434251			
26288	2296265	9.101236	-0.785957	-0.357818	-0.680912	-0.645945	0.299162	-98.123460	-85.966918	-135.189865			
26289	2296290	9.206122	-0.697807	-0.398670	-0.622261	-0.641696	0.281173	-99.416639	-85.913433	-133.982781			
26290	2296315	9.207599	-0.645478	-0.414459	-0.575464	-0.637505	0.255105	-100.671582	-85.861793	-132.807716			
26291	2296340	9.200790	-0.628963	-0.426297	-0.533564	-0.637199	0.245413	-101.893523	-85.809763	-131.659162			
26292	2296365	9.220001	-0.645557	-0.409108	-0.505638	-0.631245	0.244296	-103.071239	-85.756338	-130.550865			
26293	2296390	9.239223	-0.627749	-0.379754	-0.490461	-0.620745	0.250489	-104.195671	-85.700779	-129.493742			
26294	2296415	9.211530	-0.615652	-0.313356	-0.497389	-0.615151	0.248146	-105.283791	-85.644191	-128.474433			
26295	2296440	9.232222	-0.516738	-0.274483	-0.530955	-0.608005	0.248572	-106.336507	-85.586443	-127.494896			
26296	2296465	9.160680	-0.379417	-0.222240	-0.579155	-0.594306	0.249885	-107.344882	-85.527747	-126.566682			
26297	2296490	9.120614	-0.284904	-0.114339	-0.637846	-0.588724	0.258611	-108.321749	-85.466869	-125.678429			
26298	2296515	9.105476	-0.197117	-0.064901	-0.692076	-0.584583	0.273143	-109.265764	-85.403007	-124.831290			
26299	2296540	9.109510	-0.156044	-0.000941	-0.764938	-0.582139	0.288543	-110.182210	-85.336144	-124.021763			
26300	2296565	9.199059	-0.032484	0.053975	-0.844756	-0.577542	0.321640	-111.057492	-85.264062	-123.264931			
26301	2296590	9.285696	0.075643	0.177994	-0.937063	-0.569990	0.338096	-111.898932	-85.189262	-122.555245			
26302	2296615	9.420409	0.121983	0.301754	-1.033871	-0.574127	0.363086	-112.720372	-85.110041	-121.879816			
26303	2296640	9.506926	0.199743	0.445565	-1.123039	-0.585534	0.381540	-113.535821	-85.026974	-121.222790			
26304	2296665	9.576992	0.295553	0.574815	-1.207686	-0.590961	0.410618	-114.327694	-84.939002	-120.601518			
26305	2296690	9.609788	0.374735	0.731898	-1.288547	-0.607510	0.428197	-115.118841	-84.847008	-119.992516			
26306	2296715	9.615105	0.381276	0.815615	-1.353526	-0.620407	0.448233	-115.898883	-84.750872	-119.404120			
26307	2296740	9.683802	0.411213	0.895462	-1.420039	-0.633884	0.466751	-116.669666	-84.650812	-118.834299			
26308	2296765	9.668539	0.481021	0.987403	-1.471035	-0.647203	0.481381	-117.430695	-84.547323	-118.281518			
26309	2296790	9.628442	0.579637	1.100626	-1.519070	-0.661640	0.489830	-118.186919	-84.441119	-117.740380			
26310	2296815	9.497572	0.736094	1.200634	-1.546146	-0.687637	0.497182	-118.950129	-84.331526	-117.196026			
26311	2296840	9.394373	0.852796	1.252866	-1.563184	-0.704297	0.497692	-119.711301	-84.220006	-116.656063			
26312	2296865	9.424654	0.929676	1.296967	-1.585856	-0.727663	0.489481	-120.484763	-84.107113	-116.106903			
26313	2296890	9.412312	0.973645	1.302425	-1.613776	-0.753845	0.488520	-121.268460	-83.991666	-115.551361			
26314	2296915	9.347714	1.098762	1.321392	-1.643574	-0.774378	0.465475	-122.070366	-83.876716	-114.981451			
26315	2296940	9.250096	1.211528	1.327026	-1.671116	-0.802999	0.444232	-122.897718	-83.761268	-114.390023			
26316	2296965	9.155444	1.276578	1.220913	-1.696672	-0.822901	0.421282	-123.740522	-83.646085	-113.786602			
26317	2296990	9.141962	1.279804	1.099994	-1.717194	-0.842077	0.399451	-124.596005	-83.530979	-113.173245			
26318	2297015	8.960370	1.307575	1.028258	-1.736516	-0.850348	0.375893	-125.453509	-83.416986	-112.560019			
26319	2297040	8.679528	1.231065	0.930822	-1.753229	-0.858883	0.365807	-126.304206	-83.302381	-111.956396			
26320	2297065	8.694648	1.182879	0.930716	-1.742924	-0.858101	0.335715	-127.149890	-83.190277	-111.356195			
26321	2297090	8.455044	1.069079	0.842504	-1.733149	-0.841602	0.313883	-127.971141	-83.081077	-110.779055			
26322	2297115	8.218417	0.985762	0.694613	-1.731056	-0.817154	0.288877	-128.766050	-82.975959	-110.227328			
26323	2297140	8.009137	0.872036	0.601144	-1.728343	-0.781035	0.262171	-129.528351	-82.876113	-109.708638			
26324	2297165	7.867230	0.719678	0.531506	-1.710820	-0.743184	0.249079	-130.247247	-82.780366	-109.231054			
26325	2297190	7.715695	0.548079	0.448463	-1.686135	-0.697733	0.239589	-130.915473	-82.689173	-108.800888			
26326	2297215	7.597182	0.424495	0.398771	-1.630190	-0.643413	0.227814	-131.525667	-82.603849	-108.420232			
26327	2297240	7.460846	0.343586	0.347943	-1.539409	-0.592773	0.229052	-132.069841	-82.522667	-108.093807			
26328	2297265	7.298448	0.292985	0.274602	-1.427610	-0.540120	0.225568	-132.549335	-82.446556	-107.816413			
26329	2297290	7.189592	0.128279	0.196946	-1.300382	-0.483701	0.223418	-132.960495	-82.375878	-107.589523			
26330	2297315	7.072592	0.065284	0.131538	-1.169740	-0.428137	0.215896	-133.309545	-82.311316	-107.405455			
26331	2297340	6.972015	-0.043194	0.085972	-1.021812	-0.368124	0.211871	-133.590364	-82.252867	-107.269763			
26332	2297365	6.951427	-0.231069	-0.048859	-0.880812	-0.311931	0.188398	-133.822503	-82.202328	-107.162799			
26333	2297390	6.916977	-0.452038	-0.174510	-0.753099	-0.249285	0.167352	-134.002539	-82.160133	-107.089952			
26334	2297415	6.859034	-0.627798	-0.242900	-0.630288	-0.189084	0.141065	-134.137705	-82.126702	-107.043673			
26335	2297440	6.785884	-0.816030	-0.287396	-0.513311	-0.124578	0.111686	-134.228971	-82.102628	-107.025755			
26336	2297465	6.731961	-0.949455	-0.281263	-0.392647	-0.072221	0.085899	-134.282569	-82.086430	-107.028416			
26337	2297490	6.725064	-1.044180	-0.334748	-0.286844	-0.027418	0.066282	-134.302024	-82.076726	-107.050249			
26338	2297515	6.767779	-1.071614	-0.362724	-0.186977	0.013368	0.067039	-134.276439	-82.071109	-107.102176			
26339	2297540	6.839449	-1.027630	-0.357252	-0.109379	0.044391	0.066113	-134.217787	-82.068596	-107.177205			
26340	2297565	6.886292	-0.993320	-0.342501	-0.045967	0.064757	0.069708	-134.132498	-82.067734	-107.269957			
26341	2297590	6.905555	-0.964516	-0.321144	0.003833	0.082339	0.077820	-134.021306	-82.067767	-107.381661			
26342	2297615	6.995061	-0.968668	-0.317133	0.032204	0.092302	0.091547	-133.888687	-82.067425	-107.509983			
26343	2297640	7.080397	-1.001702	-0.318532	0.033829	0.095643	0.108743	-133.741344	-82.065511	-107.653849			
26344	2297665	7.201663	-0.952197	-0.316966	0.034732	0.104643	0.127704	-133.573813	-82.062468	-107.817968			
26345	2297690	7.332514	-0.943985	-0.318198	0.022775	0.104566	0.137754	-133.401090	-82.058305	-107.989061			
26348	2297715	7.402546	-0.989575	-0.263853	0.002593	0.094877	0.150035	-133.229834	-82.051919	-108.160698			
26349	2297740	7.456378	-0.922194	-0.268910	-0.014003	0.082566	0.165826	-133.059620	-82.042526	-108.334582			
26350	2297765	7.530756	-0.857673	-0.231462	-0.051402	0.073636	0.163449	-132.903517	-82.032441	-108.499630			
26351	2297790	7.618769	-0.866130	-0.186258	-0.073433	0.062846	0.166079	-132.757249	-82.020970	-108.657939			
26352	2297815	7.726066	-0.899280	-0.154417	-0.097848	0.042948	0.162549	-132.632058	-82.007965	-108.797607			
26353	2297840	7.848531	-0.943393	-0.133250	-0.123657	0.017515	0.164337	-132.529090	-81.992187	-108.919465			
26354	2297865	7.935276	-0.959900	-0.135886	-0.146711	-0.011642	0.160888	-132.454094	-81.973927	-109.016415			
26355	2297890	8.001545	-0.888281	-0.160876	-0.169837	-0.041696	0.161813	-132.404661	-81.952650	-109.090898			
26356	2297915	8.027719	-0.856725	-0.143485	-0.188887	-0.066477	0.157565	-132.379425	-81.929502	-109.142806			
26357	2297940	8.091012	-0.865063	-0.123520	-0.199355	-0.090183	0.160673	-132.371693	-81.903655	-109.179449			
26358	2297965	8.144700	-0.898059	-0.131583	-0.207542	-0.118794	0.153346	-132.391444	-81.875821	-109.189519			
26359	2297990	8.177764	-0.914509	-0.144902	-0.205025	-0.145914	0.148258	-132.434255	-81.845905	-109.175930			
26360	2298015	8.187343	-0.937894	-0.138349	-0.205414	-0.170515	0.136481	-132.502650	-81.814935	-109.135643			
26361	2298040	8.221934	-0.882811	-0.168684	-0.210519	-0.193462	0.127840	-132.594190	-81.782564	-109.073616			
26362	2298065	8.328149	-0.805707	-0.189617	-0.215487	-0.208437	0.113745	-132.706155	-81.750209	-108.991663			
26363	2298090	8.435532	-0.753638	-0.145541	-0.217038	-0.226341	0.112483	-132.831354	-81.716222	-108.896556			
26364	2298115	8.577346	-0.735904	-0.114804	-0.221728	-0.246723	0.112025	-132.970986	-81.680346	-108.786608			
26365	2298140	8.778395	-0.731859	-0.109386	-0.222492	-0.250337	0.105122	-133.117093	-81.644718	-108.671142			
26366	2298165	8.885796	-0.711352	-0.081322	-0.215973	-0.271738	0.109828	-133.273163	-81.606456	-108.544651			
26367	2298190	9.052335	-0.723871	-0.048053	-0.210677	-0.271799	0.109813	-133.427249	-81.568140	-108.419386			
26368	2298215	9.203770	-0.752820	-0.037445	-0.204788	-0.275579	0.105050	-133.584764	-81.529982	-108.288830			
26369	2298240	9.326384	-0.729462	-0.042594	-0.197321	-0.276065	0.098713	-133.744715	-81.492294	-108.155677			
26370	2298265	9.422968	-0.679817	-0.083557	-0.187452	-0.273648	0.102535	-133.897778	-81.454397	-108.028045			
26371	2298290	9.560742	-0.639933	-0.083315	-0.183508	-0.267966	0.105803	-134.043008	-81.416679	-107.907751			
26372	2298315	9.625540	-0.626126	-0.097823	-0.181215	-0.251275	0.094205	-134.182816	-81.381865	-107.791594			
26373	2298340	9.720694	-0.584802	-0.125559	-0.176054	-0.234337	0.090246	-134.312312	-81.349018	-107.686113			
26374	2298365	9.824097	-0.539325	-0.143940	-0.164884	-0.207487	0.078967	-134.428739	-81.319982	-107.592223			
26375	2298390	9.879270	-0.441781	-0.123654	-0.162046	-0.177449	0.074655	-134.526860	-81.294375	-107.516435			
26376	2298415	9.982520	-0.393890	-0.075571	-0.153106	-0.142878	0.070265	-134.602852	-81.272769	-107.460675			
26377	2298440	10.056996	-0.268864	-0.041916	-0.140846	-0.120158	0.072567	-134.660471	-81.253109	-107.422783			
26378	2298465	10.168585	-0.207076	-0.019079	-0.132452	-0.087796	0.074135	-134.694278	-81.236544	-107.407765			
26379	2298490	10.278805	-0.149443	0.001134	-0.122112	-0.064433	0.084606	-134.704281	-81.221266	-107.415333			
26380	2298515	10.401225	-0.138685	0.063674	-0.128633	-0.044699	0.090632	-134.698048	-81.207466	-107.439135			
26381	2298540	10.489229	-0.164973	0.104811	-0.125225	-0.036509	0.095093	-134.683342	-81.193933	-107.472159			
26382	2298565	10.574526	-0.170611	0.138064	-0.132734	-0.025246	0.103210	-134.657120	-81.180706	-107.517925			
26383	2298590	10.586925	-0.206301	0.119342	-0.138776	-0.023283	0.101383	-134.631766	-81.167859	-107.563692			
26384	2298615	10.643477	-0.189714	0.088863	-0.139873	-0.016433	0.105806	-134.599071	-81.155358	-107.615816			
26385	2298640	10.687552	-0.192440	0.087546	-0.130966	-0.008938	0.111391	-134.556963	-81.142924	-107.677408			
26386	2298665	10.767373	-0.226878	0.090147	-0.123544	-0.003530	0.117980	-134.506159	-81.130353	-107.746728			
26387	2298690	10.832144	-0.222707	0.082218	-0.107025	0.002560	0.124639	-134.444901	-81.117702	-107.824237			
26388	2298715	10.876268	-0.256965	0.036947	-0.084026	0.004898	0.128880	-134.376049	-81.104956	-107.904784			
26389	2298740	10.946445	-0.280381	0.050200	-0.060987	-0.001824	0.141750	-134.300554	-81.090085	-107.990034			
26390	2298765	11.064758	-0.373892	0.045961	-0.040348	-0.008155	0.150926	-134.220674	-81.073621	-108.076733			
26391	2298790	11.093498	-0.484012	0.053542	-0.018105	-0.020343	0.149845	-134.146564	-81.056034	-108.154370			
26392	2298815	11.047930	-0.515715	0.079985	0.013113	-0.043249	0.163104	-134.074593	-81.034909	-108.223930			
26393	2298840	11.079525	-0.546064	0.098515	0.056244	-0.068146	0.180575	-134.002275	-81.009367	-108.288980			
26394	2298865	11.235316	-0.596606	0.002796	0.079624	-0.093311	0.183325	-133.941635	-80.981027	-108.338820			
26395	2298890	11.378811	-0.660712	-0.135544	0.091721	-0.109065	0.182107	-133.890582	-80.951240	-108.377203			
26396	2298915	11.458886	-0.712574	-0.247244	0.085163	-0.113769	0.175028	-133.847930	-80.921842	-108.406587			
26397	2298940	11.527815	-0.761899	-0.305815	0.065507	-0.114031	0.164732	-133.815131	-80.893349	-108.430292			
26398	2298965	11.529495	-0.698315	-0.394613	0.051001	-0.099055	0.160739	-133.777412	-80.866751	-108.461086			
26399	2298990	11.519915	-0.647441	-0.389138	0.038052	-0.081000	0.157514	-133.732134	-80.842271	-108.501418			
26400	2299015	11.455202	-0.593919	-0.362395	0.043334	-0.057097	0.165966	-133.665569	-80.819410	-108.561062			
26401	2299040	11.435790	-0.584494	-0.303944	0.059843	-0.036961	0.175525	-133.578503	-80.797400	-108.640568			
26402	2299065	11.420611	-0.541999	-0.266577	0.069045	-0.020874	0.187249	-133.473107	-80.775738	-108.737314			
26403	2299090	11.428816	-0.587382	-0.269398	0.086327	0.005774	0.196683	-133.342960	-80.755686	-108.856634			
26404	2299115	11.434016	-0.679752	-0.200617	0.092259	0.022496	0.200014	-133.199527	-80.737020	-108.987023			
26405	2299140	11.385764	-0.678449	-0.178015	0.112335	0.036493	0.205483	-133.041810	-80.718960	-109.130516			
26406	2299165	11.353865	-0.724083	-0.115765	0.135149	0.058551	0.203994	-132.868157	-80.703142	-109.286851			
26407	2299190	11.334724	-0.711541	-0.164908	0.151730	0.076741	0.211778	-132.676402	-80.688195	-109.459131			
26408	2299215	11.349901	-0.737602	-0.191519	0.174917	0.098051	0.223546	-132.460990	-80.674113	-109.650442			
26409	2299240	11.403488	-0.828343	-0.194462	0.197911	0.124784	0.238226	-132.217357	-80.660790	-109.868606			
26410	2299265	11.494412	-0.895606	-0.245089	0.219449	0.154632	0.259869	-131.939411	-80.647871	-110.118426			
26411	2299290	11.633484	-0.997180	-0.294527	0.248505	0.181450	0.276059	-131.631289	-80.635574	-110.394620			
26412	2299315	11.808481	-1.080818	-0.378440	0.282650	0.210533	0.302689	-131.284551	-80.623064	-110.703392			
26413	2299340	12.045376	-1.167289	-0.437045	0.333130	0.226292	0.328125	-130.907030	-80.608829	-111.037660			
26414	2299365	12.334655	-1.297633	-0.539593	0.397594	0.256057	0.355440	-130.486459	-80.594029	-111.406219			
26415	2299390	12.629621	-1.386530	-0.681949	0.488682	0.270078	0.379746	-130.031339	-80.577410	-111.796591			
26416	2299415	12.967093	-1.606070	-0.833981	0.584008	0.279489	0.407510	-129.542266	-80.558216	-112.205943			
26417	2299440	13.194397	-1.854392	-1.007410	0.683074	0.290439	0.428389	-129.022583	-80.536965	-112.633581			
26418	2299465	13.423150	-2.083399	-1.191388	0.789356	0.298527	0.438491	-128.479021	-80.514660	-113.070021			
26419	2299490	13.567928	-2.299997	-1.389938	0.889226	0.318134	0.437620	-127.910736	-80.493493	-113.517050			
26420	2299515	13.627410	-2.491717	-1.608480	0.972228	0.342564	0.433377	-127.318146	-80.474334	-113.975139			
26421	2299540	13.689464	-2.719410	-1.767333	1.040301	0.381324	0.432360	-126.692389	-80.457691	-114.458553			
26422	2299565	13.671629	-2.948446	-1.931495	1.102260	0.421968	0.421280	-126.037366	-80.444883	-114.962665			
26423	2299590	13.591920	-3.079898	-2.075399	1.147250	0.470560	0.393889	-125.357358	-80.438350	-115.485592			
26424	2299615	13.480560	-3.188052	-2.212775	1.179426	0.524934	0.375958	-124.643964	-80.437456	-116.036279			
26425	2299640	13.415943	-3.242750	-2.289902	1.199224	0.581570	0.345758	-123.902729	-80.443419	-116.613749			
26426	2299665	13.249526	-3.216308	-2.374990	1.209421	0.645495	0.324223	-123.123805	-80.455736	-117.227940			
26427	2299690	13.145132	-3.159599	-2.447933	1.206980	0.716016	0.305569	-122.301260	-80.474336	-117.886690			
26428	2299715	13.043424	-3.059129	-2.467532	1.205825	0.796868	0.293447	-121.422198	-80.499008	-118.601595			
26429	2299740	12.949776	-2.931498	-2.384767	1.193560	0.887857	0.282684	-120.478769	-80.529714	-119.384760			
26430	2299765	12.821584	-2.804057	-2.270220	1.171339	0.963927	0.261767	-119.485015	-80.566275	-120.222090			
26431	2299790	12.762140	-2.667116	-2.101065	1.149055	1.032921	0.249361	-118.440256	-80.606725	-121.114264			
26432	2299815	12.649012	-2.446498	-1.893167	1.114749	1.075354	0.238075	-117.363731	-80.648831	-122.042357			
26433	2299840	12.484886	-2.192912	-1.653286	1.083938	1.101626	0.223728	-116.268285	-80.691504	-122.995135			
26434	2299865	12.293210	-1.984628	-1.432184	1.038773	1.110160	0.209664	-115.168730	-80.733555	-123.958516			
26435	2299890	12.061767	-1.745876	-1.262772	0.985249	1.105403	0.191288	-114.078267	-80.774737	-124.920340			
26436	2299915	11.783561	-1.489222	-1.111949	0.934937	1.084720	0.173844	-113.008669	-80.814188	-125.867117			
26437	2299940	11.523185	-1.283435	-0.967960	0.886697	1.060640	0.167824	-111.959915	-80.850225	-126.800779			
26438	2299965	11.269752	-1.157132	-0.886699	0.840216	1.013865	0.153405	-110.953900	-80.883061	-127.697806			
26439	2299990	11.010923	-1.000436	-0.837144	0.804340	0.967144	0.135331	-109.991290	-80.913530	-128.555999			
26440	2300015	10.756529	-0.806312	-0.885784	0.770527	0.925696	0.115754	-109.068165	-80.942499	-129.377948			
26441	2300040	10.453906	-0.661555	-0.947949	0.733935	0.885363	0.109652	-108.181588	-80.968319	-130.169227			
26442	2300065	10.217382	-0.558077	-1.034095	0.694916	0.855790	0.100793	-107.323879	-80.992160	-130.936880			
26443	2300090	9.989039	-0.519157	-1.124433	0.652008	0.831418	0.088993	-106.492390	-81.014827	-131.684161			
26444	2300115	9.829755	-0.447040	-1.275797	0.614487	0.821477	0.072533	-105.674758	-81.037757	-132.421716			
26445	2300140	9.668979	-0.438234	-1.416695	0.574660	0.818865	0.054207	-104.866020	-81.061407	-133.157086			
26446	2300165	9.579719	-0.444698	-1.515052	0.552060	0.821963	0.034687	-104.058172	-81.086260	-133.894782			
26447	2300190	9.506850	-0.477449	-1.581644	0.532475	0.835155	0.014670	-103.241413	-81.112719	-134.644286			
26450	2300215	9.447748	-0.495061	-1.649511	0.521514	0.852485	-0.009452	-102.410524	-81.141504	-135.408558			
26451	2300240	9.388671	-0.522344	-1.712067	0.529653	0.869017	-0.030079	-101.562741	-81.171864	-136.189752			
26452	2300265	9.307459	-0.581234	-1.770788	0.558554	0.895182	-0.054480	-100.685779	-81.204566	-136.996217			
26453	2300290	9.351623	-0.604459	-1.818650	0.603765	0.921375	-0.079949	-99.776298	-81.239595	-137.828960			
26454	2300315	9.331098	-0.608345	-1.881169	0.660523	0.947045	-0.104885	-98.831429	-81.276755	-138.688178			
26455	2300340	9.394570	-0.676784	-1.971681	0.746049	0.976713	-0.125545	-97.842316	-81.315176	-139.580697			
26456	2300365	9.480354	-0.702320	-2.140471	0.832735	1.015217	-0.149165	-96.799329	-81.355254	-140.515059			
26457	2300390	9.575546	-0.736437	-2.220251	0.932253	1.059300	-0.166932	-95.693344	-81.395903	-141.498621			
26458	2300415	9.689743	-0.864205	-2.264443	1.059627	1.102403	-0.179085	-94.519240	-81.435961	-142.531561			
26459	2300440	9.786436	-0.984577	-2.446827	1.183013	1.155324	-0.189558	-93.267972	-81.474689	-143.625508			
26460	2300465	9.918783	-1.120294	-2.573413	1.302135	1.212971	-0.196973	-91.934396	-81.511177	-144.785319			
26461	2300490	10.035778	-1.344068	-2.680437	1.430118	1.274508	-0.204052	-90.513098	-81.544732	-146.015178			
26462	2300515	10.218814	-1.533772	-2.724796	1.557161	1.334898	-0.227314	-89.004694	-81.577001	-147.313744			
26463	2300540	10.533731	-1.545537	-2.549288	1.725351	1.369663	-0.239285	-87.428357	-81.605625	-148.657377			
26464	2300565	10.732146	-1.689330	-2.701118	1.913205	1.399847	-0.259741	-85.785334	-81.631386	-150.041122			
26465	2300590	10.907351	-1.853621	-2.911539	2.085133	1.438140	-0.269954	-84.071197	-81.652201	-151.471771			
26466	2300615	11.047653	-1.958331	-2.881179	2.241850	1.471895	-0.289856	-82.292391	-81.668979	-152.944306			
26467	2300640	11.094562	-2.157181	-3.030661	2.387311	1.500130	-0.315342	-80.456411	-81.681959	-154.454227			
26468	2300665	11.209953	-2.260700	-2.953797	2.518596	1.527097	-0.341973	-78.566787	-81.690874	-155.999315			
26469	2300690	11.270431	-2.338929	-2.979398	2.639908	1.543554	-0.362774	-76.637257	-81.694743	-157.567145			
26470	2300715	11.379125	-2.425607	-2.980958	2.736816	1.548934	-0.382806	-74.683428	-81.693570	-159.144946			
26471	2300740	11.512592	-2.523278	-2.977192	2.786464	1.549820	-0.416433	-72.714303	-81.689135	-160.731583			
26472	2300765	11.629584	-2.582424	-2.981440	2.791462	1.548557	-0.444153	-70.740329	-81.680642	-162.322421			
26473	2300790	11.846862	-2.574723	-2.847116	2.763843	1.528516	-0.465706	-68.786344	-81.668159	-163.897099			
26474	2300815	12.107029	-2.569480	-2.805801	2.709444	1.499800	-0.483404	-66.866023	-81.651917	-165.445309			
26475	2300840	12.384970	-2.535748	-2.663317	2.627324	1.451177	-0.482158	-65.009268	-81.630918	-166.941612			
26476	2300865	12.570406	-2.420014	-2.378478	2.530248	1.385136	-0.484009	-63.232656	-81.607400	-168.371047			
26477	2300890	12.695088	-2.189135	-1.987004	2.417911	1.302407	-0.458703	-61.564339	-81.579909	-169.707371			
26478	2300915	12.807329	-1.963849	-1.579676	2.311155	1.189674	-0.422052	-60.033874	-81.550313	-170.919649			
26479	2300940	12.834030	-1.836067	-1.171343	2.224047	1.053865	-0.367986	-58.664636	-81.519441	-171.981879			
26480	2300965	12.778142	-1.749438	-0.800489	2.142391	0.898404	-0.311022	-57.471189	-81.489933	-172.878278			
26481	2300990	12.710025	-1.665262	-0.498519	2.066196	0.726713	-0.265253	-56.456889	-81.465791	-173.604627			
26482	2301015	12.618669	-1.557414	-0.253805	1.977383	0.550967	-0.226386	-55.619470	-81.449401	-174.164833			
26483	2301040	12.499950	-1.439776	-0.070084	1.889542	0.373276	-0.197196	-54.951768	-81.442935	-174.566335			
26484	2301065	12.316595	-1.324721	0.071073	1.812926	0.191112	-0.174265	-54.449720	-81.448256	-174.811419			
26485	2301090	12.195196	-1.238556	0.204134	1.758082	0.018278	-0.150277	-54.102097	-81.464973	-174.908282			
26486	2301115	12.082119	-1.157708	0.311980	1.704579	-0.150755	-0.133132	-53.901769	-81.493909	-174.863787			
26487	2301140	11.866121	-1.017356	0.303059	1.659234	-0.311306	-0.135006	-53.831070	-81.536594	-174.694962			
26488	2301165	11.574198	-0.915605	0.340449	1.607635	-0.460407	-0.145443	-53.879054	-81.593088	-174.413650			
26489	2301190	11.266971	-0.833361	0.432265	1.555872	-0.592779	-0.164522	-54.030495	-81.662877	-174.035306			
26490	2301215	11.008040	-0.668607	0.541642	1.515381	-0.718187	-0.207666	-54.268001	-81.748055	-173.575757			
26491	2301240	10.785602	-0.299735	0.496347	1.463629	-0.828379	-0.255667	-54.582215	-81.847642	-173.046471			
26492	2301265	10.608626	0.064922	0.427065	1.406292	-0.931878	-0.308664	-54.970286	-81.961517	-172.451022			
26493	2301290	10.426125	0.461216	0.388439	1.340009	-1.009435	-0.351474	-55.422854	-82.086150	-171.800208			
26494	2301315	10.235327	0.825912	0.347009	1.277367	-1.081423	-0.389190	-55.942550	-82.220338	-171.090666			
26495	2301340	10.094208	1.120696	0.231038	1.217284	-1.136579	-0.429368	-56.517898	-82.362722	-170.334111			
26496	2301365	9.999684	1.321852	0.131946	1.155041	-1.181080	-0.455055	-57.153035	-82.510592	-169.526492			
26497	2301390	9.956856	1.231127	0.120983	1.104692	-1.212658	-0.487121	-57.835175	-82.663536	-168.679027			
26498	2301415	9.933124	1.023422	0.120258	1.073370	-1.237830	-0.517024	-58.561011	-82.820724	-167.792007			
26499	2301440	9.894260	0.782790	0.104815	1.068016	-1.263401	-0.528883	-59.342053	-82.979712	-166.850758			
26500	2301465	9.845536	0.374506	0.056886	1.094816	-1.283973	-0.533793	-60.177230	-83.139136	-165.851430			
26501	2301490	9.784159	-0.192083	0.036336	1.144358	-1.292951	-0.530099	-61.060328	-83.296902	-164.797030			
26502	2301515	9.688236	-0.772510	0.058302	1.210800	-1.307229	-0.537995	-61.991337	-83.454709	-163.684801			
26503	2301540	9.551071	-1.373398	0.036269	1.308186	-1.312698	-0.551554	-62.956616	-83.612396	-162.524751			
26504	2301565	9.400450	-1.824295	-0.022397	1.422875	-1.319109	-0.570372	-63.955381	-83.770642	-161.314841			
26505	2301590	9.142489	-2.218697	-0.078310	1.551590	-1.321104	-0.595989	-64.980469	-83.929951	-160.060278			
26506	2301615	8.814421	-2.468857	-0.107210	1.694710	-1.314110	-0.625189	-66.020659	-84.090260	-158.770007			
26507	2301640	8.480742	-2.651912	-0.054808	1.845319	-1.308798	-0.655274	-67.079696	-84.251670	-157.439763			
26508	2301665	8.142733	-2.750180	0.098800	2.011216	-1.310290	-0.686386	-68.168254	-84.414725	-156.056352			
26509	2301690	7.885998	-2.689313	0.384687	2.182071	-1.322346	-0.718771	-69.305535	-84.580045	-154.599794			
26510	2301715	7.540566	-2.513173	0.426149	2.371568	-1.344594	-0.749484	-70.513209	-84.747748	-153.045499			
26511	2301740	7.210269	-2.508601	0.310336	2.527448	-1.359231	-0.768358	-71.801067	-84.915456	-151.388870			
26512	2301765	7.025532	-2.430664	0.427490	2.663127	-1.377388	-0.789544	-73.187325	-85.083316	-149.614387			
26513	2301790	6.774962	-2.339938	0.455575	2.780631	-1.388406	-0.804346	-74.678448	-85.249716	-147.718219			
26514	2301815	6.554899	-2.244701	0.397232	2.875336	-1.393787	-0.813375	-76.282953	-85.413221	-145.695048			
26515	2301840	6.406174	-2.250181	0.363914	2.928166	-1.388867	-0.824712	-77.998103	-85.573285	-143.553844			
26516	2301865	6.355367	-2.127904	0.377691	2.941455	-1.377898	-0.829125	-79.831237	-85.728383	-141.292862			
26517	2301890	6.338095	-1.996469	0.241187	2.931186	-1.361164	-0.818255	-81.787122	-85.875811	-138.910718			
26518	2301915	6.376693	-2.030797	0.132059	2.874359	-1.337456	-0.798687	-83.864648	-86.013827	-136.415212			
26519	2301940	6.528233	-2.045833	0.145463	2.811599	-1.317493	-0.767172	-86.072527	-86.140383	-133.798466			
26520	2301965	6.531948	-2.223446	0.167225	2.744244	-1.283910	-0.722346	-88.377708	-86.253145	-131.094239			
26521	2301990	6.542610	-2.380519	0.234655	2.572213	-1.233311	-0.665435	-90.741921	-86.350297	-128.355876			
26522	2302015	6.689085	-2.473065	0.009864	2.342321	-1.164063	-0.607378	-93.107159	-86.432097	-125.649838			
26523	2302040	6.763847	-2.501319	-0.178894	2.096989	-1.084894	-0.560749	-95.425253	-86.501048	-123.026379			
26524	2302065	6.781719	-2.546629	-0.193694	1.851889	-1.007309	-0.492302	-97.667593	-86.555034	-120.514157			
26525	2302090	6.689444	-2.793625	-0.344739	1.613933	-0.928097	-0.425339	-99.799447	-86.595413	-118.146890			
26526	2302115	6.733459	-2.985873	-0.436927	1.368625	-0.846813	-0.358163	-101.790438	-86.623388	-115.956218			
26527	2302140	6.752094	-3.071932	-0.236629	1.157983	-0.760052	-0.305495	-103.606547	-86.642431	-113.970804			
26528	2302165	6.622578	-3.025345	-0.176720	0.988947	-0.695835	-0.251789	-105.279700	-86.652758	-112.152876			
26529	2302190	6.453397	-3.041430	-0.272543	0.834185	-0.638697	-0.203294	-106.815450	-86.655691	-110.494804			
26530	2302215	6.216555	-3.068771	-0.301993	0.685793	-0.583291	-0.167175	-108.217841	-86.653565	-108.991943			
26531	2302240	6.041710	-3.046698	-0.316641	0.548203	-0.522456	-0.130348	-109.466220	-86.647264	-107.662761			
26532	2302265	5.902715	-2.983382	-0.313835	0.423731	-0.474900	-0.099669	-110.592002	-86.637560	-106.474236			
26533	2302290	5.864468	-2.868985	-0.369275	0.316323	-0.425644	-0.073616	-111.591424	-86.625625	-105.427688			
26534	2302315	5.888300	-2.735244	-0.464493	0.217757	-0.383769	-0.048938	-112.481384	-86.611606	-104.505378			
26535	2302340	5.877671	-2.613893	-0.545147	0.109030	-0.336105	-0.030814	-113.256032	-86.597105	-103.713713			
26536	2302365	5.905576	-2.511775	-0.633816	0.004902	-0.283583	-0.016777	-113.909978	-86.583187	-103.057896			
26537	2302390	5.908742	-2.354739	-0.703713	-0.092551	-0.235418	-0.014284	-114.465250	-86.571360	-102.514904			
26538	2302415	5.991814	-2.175680	-0.776142	-0.168693	-0.190175	-0.005603	-114.921498	-86.560770	-102.082588			
26539	2302440	6.007404	-1.997962	-0.851292	-0.248991	-0.148998	0.000583	-115.291356	-86.551749	-101.747782			
26540	2302465	6.056013	-1.809359	-0.906440	-0.314352	-0.103176	0.010803	-115.560241	-86.544111	-101.523510			
26541	2302490	6.070162	-1.631744	-0.953684	-0.372838	-0.064459	0.028825	-115.735343	-86.536495	-101.401581			
26542	2302515	6.067737	-1.444622	-0.979649	-0.425500	-0.025824	0.034338	-115.829879	-86.530497	-101.368542			
26543	2302540	6.043341	-1.275237	-1.033557	-0.462861	0.010796	0.059624	-115.825469	-86.523583	-101.439373			
26544	2302565	6.063009	-1.142925	-1.111499	-0.495242	0.048035	0.079691	-115.726402	-86.516396	-101.609684			
26545	2302590	6.079806	-1.002528	-1.141612	-0.514476	0.087349	0.098406	-115.528403	-86.509200	-101.881872			
26546	2302615	6.122740	-0.918476	-1.187805	-0.525960	0.118130	0.119720	-115.246874	-86.501006	-102.240046			
26547	2302640	6.132583	-0.868774	-1.236777	-0.530934	0.143778	0.140643	-114.892225	-86.491594	-102.671545			
26548	2302665	6.120267	-0.821939	-1.248614	-0.537387	0.174499	0.146657	-114.469656	-86.483059	-103.172021			
26549	2302690	6.178366	-0.757099	-1.308164	-0.541610	0.202584	0.155731	-113.981717	-86.474746	-103.738600			
26552	2302715	6.134409	-0.736340	-1.342657	-0.546625	0.228424	0.164354	-113.434524	-86.466413	-104.365942			
26553	2302740	6.095895	-0.723882	-1.351924	-0.556132	0.254403	0.169770	-112.830775	-86.458504	-105.050648			
26554	2302765	6.065703	-0.666098	-1.363729	-0.562984	0.276640	0.164944	-112.187600	-86.451994	-105.775843			
26555	2302790	6.096193	-0.593027	-1.402027	-0.551526	0.293681	0.160204	-111.512826	-86.446507	-106.531059			
26556	2302815	6.183301	-0.496503	-1.482695	-0.556059	0.313862	0.162250	-110.796433	-86.441160	-107.329313			
26557	2302840	6.252461	-0.432930	-1.563506	-0.551191	0.339641	0.171965	-110.017851	-86.435214	-108.188498			
26558	2302865	6.339308	-0.355992	-1.548577	-0.536279	0.367053	0.188041	-109.168501	-86.427657	-109.116456			
26559	2302890	6.514432	-0.263770	-1.573405	-0.537090	0.391755	0.201151	-108.260138	-86.418572	-110.103665			
26560	2302915	6.540303	-0.209287	-1.425719	-0.536998	0.409392	0.200759	-107.319298	-86.409259	-111.124095			
26561	2302940	6.593772	-0.212421	-1.331393	-0.521915	0.412552	0.203480	-106.372342	-86.398715	-112.147817			
26562	2302965	6.600454	-0.215476	-1.251670	-0.502318	0.404717	0.198691	-105.448645	-86.387476	-113.145433			
26563	2302990	6.622428	-0.205963	-1.219720	-0.467448	0.402530	0.188381	-104.536811	-86.376579	-114.126170			
26564	2303015	6.601537	-0.187102	-1.118702	-0.430605	0.390598	0.172450	-103.660983	-86.366458	-115.066223			
26565	2303040	6.557308	-0.137916	-1.024227	-0.377104	0.368702	0.162616	-102.834934	-86.356163	-115.948058			
26566	2303065	6.508958	-0.144992	-0.971120	-0.325295	0.350183	0.148015	-102.053911	-86.346555	-116.777348			
26567	2303090	6.460438	-0.168833	-0.852973	-0.263412	0.330800	0.131902	-101.317999	-86.337948	-117.552563			
26568	2303115	6.462718	-0.187359	-0.674979	-0.174984	0.299752	0.111702	-100.650348	-86.330677	-118.247342			
26569	2303140	6.485803	-0.235881	-0.566195	-0.088423	0.267351	0.094725	-100.050007	-86.324525	-118.861602			
26570	2303165	6.580504	-0.278964	-0.462660	0.014491	0.223644	0.075352	-99.540121	-86.319661	-119.370452			
26571	2303190	6.682158	-0.306806	-0.373645	0.098814	0.184371	0.051963	-99.114025	-86.316925	-119.783237			
26572	2303215	6.749256	-0.388379	-0.266266	0.192045	0.133739	0.026433	-98.795974	-86.316453	-120.075005			
26573	2303240	6.812195	-0.456261	-0.136249	0.271717	0.079928	-0.003383	-98.594080	-86.318999	-120.238307			
26574	2303265	6.901367	-0.517200	-0.032743	0.355408	0.020742	-0.028850	-98.518778	-86.323867	-120.262744			
26575	2303290	6.998832	-0.575318	0.057487	0.428040	-0.033325	-0.055552	-98.561183	-86.331366	-120.158804			
26576	2303315	7.049503	-0.600480	0.163695	0.485391	-0.094451	-0.072739	-98.737552	-86.339923	-119.913012			
26577	2303340	7.111173	-0.692905	0.229860	0.525817	-0.157878	-0.090814	-99.055314	-86.349612	-119.519124			
26578	2303365	7.119239	-0.776917	0.260131	0.535748	-0.220066	-0.110273	-99.518854	-86.360443	-118.977740			
26579	2303390	7.132829	-0.843065	0.295844	0.534385	-0.275609	-0.118226	-100.112193	-86.370722	-118.306498			
26580	2303415	7.139561	-0.909203	0.322180	0.513996	-0.330786	-0.136982	-100.843410	-86.381664	-117.500643			
26581	2303440	7.160190	-0.928456	0.319473	0.481260	-0.381059	-0.137517	-101.695194	-86.390618	-116.578081			
26582	2303465	7.252188	-1.019484	0.373705	0.434508	-0.427848	-0.137904	-102.661957	-86.397289	-115.547029			
26583	2303490	7.359303	-1.100952	0.451922	0.392117	-0.476737	-0.133182	-103.743827	-86.400542	-114.406733			
26584	2303515	7.491219	-1.171415	0.528822	0.343897	-0.522561	-0.125279	-104.931028	-86.399601	-113.168426			
26585	2303540	7.649458	-1.218340	0.568624	0.287975	-0.574972	-0.114067	-106.231783	-86.393461	-111.823756			
26586	2303565	7.825813	-1.210041	0.542201	0.226246	-0.621638	-0.091998	-107.621850	-86.380367	-110.398440			
26587	2303590	8.005939	-1.346348	0.573730	0.162515	-0.663477	-0.071856	-109.084334	-86.360416	-108.909683			
26588	2303615	8.164240	-1.416536	0.569616	0.114988	-0.704683	-0.054809	-110.609908	-86.333656	-107.365103			
26589	2303640	8.367809	-1.552789	0.593200	0.057286	-0.736924	-0.033610	-112.168432	-86.299801	-105.795123			
26590	2303665	8.593425	-1.700056	0.607458	0.015780	-0.770781	-0.020520	-113.759789	-86.259569	-104.198132			
26591	2303690	8.758688	-1.760478	0.582143	-0.013524	-0.804489	-0.012787	-115.379011	-86.213433	-102.577344			
26592	2303715	8.950002	-1.893776	0.549930	-0.023356	-0.828366	-0.016446	-117.008701	-86.163200	-100.948018			
26593	2303740	9.093232	-1.963796	0.509928	-0.029930	-0.845349	-0.028330	-118.639119	-86.110336	-99.318176			
26594	2303765	9.222918	-1.931930	0.437055	-0.009401	-0.851862	-0.038677	-120.244188	-86.055225	-97.710690			
26595	2303790	9.368937	-1.925013	0.427877	0.022623	-0.853704	-0.052111	-121.816975	-85.998603	-96.130859			
26596	2303815	9.556211	-2.022544	0.383863	0.070308	-0.843479	-0.073162	-123.344116	-85.942308	-94.590487			
26597	2303840	9.755970	-2.074627	0.330670	0.124194	-0.835745	-0.089721	-124.826707	-85.885838	-93.086275			
26598	2303865	9.937774	-2.114474	0.301441	0.170010	-0.811397	-0.107062	-126.242995	-85.830723	-91.641856			
26599	2303890	10.200888	-2.159684	0.252276	0.211534	-0.782489	-0.111567	-127.576161	-85.776125	-90.274716			
26600	2303915	10.453023	-2.218634	0.173847	0.247267	-0.748785	-0.120237	-128.829228	-85.723180	-88.983359			
26601	2303940	10.729891	-2.270759	0.120672	0.267139	-0.710149	-0.126128	-129.999036	-85.672453	-87.771864			
26602	2303965	11.006828	-2.361187	0.026222	0.269267	-0.660293	-0.135076	-131.081221	-85.625567	-86.647862			
26603	2303990	11.304194	-2.511005	-0.021936	0.268415	-0.605175	-0.138855	-132.068696	-85.582792	-85.618904			
26604	2304015	11.574089	-2.594856	-0.051286	0.272328	-0.544487	-0.141776	-132.957964	-85.544849	-84.688561			
26605	2304040	11.849572	-2.666205	-0.107169	0.271791	-0.481321	-0.146005	-133.754108	-85.512569	-83.850928			
26606	2304065	12.048030	-2.709982	-0.188228	0.271435	-0.417498	-0.156702	-134.469576	-85.486895	-83.094239			
26607	2304090	12.217583	-2.711090	-0.251902	0.275739	-0.352438	-0.157665	-135.094388	-85.467191	-82.427847			
26608	2304115	12.362182	-2.816839	-0.306653	0.281383	-0.282012	-0.162300	-135.629876	-85.454532	-81.851014			
26609	2304140	12.531806	-2.822021	-0.398237	0.289989	-0.212236	-0.171855	-136.086723	-85.449671	-81.351047			
26610	2304165	12.691516	-2.916792	-0.439701	0.286451	-0.143132	-0.172058	-136.457738	-85.451697	-80.937690			
26611	2304190	12.829362	-2.975662	-0.522193	0.295104	-0.078705	-0.172099	-136.748411	-85.460244	-80.603688			
26612	2304215	12.953481	-2.985024	-0.596575	0.300826	-0.016585	-0.176603	-136.968452	-85.475535	-80.340560			
26613	2304240	13.073450	-3.012290	-0.672301	0.304514	0.051092	-0.176749	-137.106518	-85.497940	-80.158302			
26614	2304265	13.222460	-3.025636	-0.791856	0.302586	0.114478	-0.178838	-137.170513	-85.527178	-80.050626			
26615	2304290	13.305320	-2.997848	-0.870135	0.287502	0.177325	-0.171399	-137.148999	-85.562290	-80.030891			
26616	2304315	13.385357	-3.018213	-0.941890	0.282738	0.233689	-0.168817	-137.052804	-85.602991	-80.087643			
26617	2304340	13.436422	-3.037278	-0.996416	0.270556	0.295159	-0.167185	-136.876142	-85.650033	-80.225944			
26618	2304365	13.486136	-3.030225	-1.049524	0.262591	0.345856	-0.163227	-136.625453	-85.701936	-80.439620			
26619	2304390	13.524898	-3.007991	-1.113250	0.246440	0.398822	-0.158200	-136.293829	-85.758760	-80.736761			
26620	2304415	13.585840	-2.893560	-1.183229	0.214122	0.455280	-0.151840	-135.871995	-85.820552	-81.129933			
26621	2304440	13.613600	-2.805424	-1.218822	0.164855	0.509499	-0.143012	-135.357267	-85.886852	-81.622327			
26622	2304465	13.682634	-2.706365	-1.234421	0.112601	0.554006	-0.130203	-134.751399	-85.956017	-82.213556			
26623	2304490	13.781936	-2.605986	-1.224727	0.045939	0.596084	-0.122832	-134.061523	-86.028166	-82.898517			
26624	2304515	13.833069	-2.432855	-1.196237	-0.027856	0.635693	-0.114314	-133.283665	-86.102646	-83.683211			
26625	2304540	13.907672	-2.267798	-1.194377	-0.109738	0.675491	-0.102876	-132.408352	-86.179105	-84.576260			
26626	2304565	13.976842	-2.032727	-1.174941	-0.193533	0.705935	-0.088722	-131.438855	-86.255992	-85.575647			
26627	2304590	14.091307	-1.837609	-1.123747	-0.279948	0.734516	-0.071727	-130.367667	-86.332533	-86.689254			
26628	2304615	14.171375	-1.680906	-1.113865	-0.365327	0.754518	-0.047058	-129.191357	-86.406678	-87.921381			
26629	2304640	14.290016	-1.514606	-1.094651	-0.448990	0.783439	-0.020470	-127.886290	-86.478810	-89.293397			
26630	2304665	14.418068	-1.469318	-1.059925	-0.535418	0.795131	-0.000425	-126.487930	-86.547640	-90.771176			
26631	2304690	14.500902	-1.353861	-1.072729	-0.622680	0.813151	0.023852	-124.975264	-86.612849	-92.375883			
26632	2304715	14.613928	-1.290584	-1.068497	-0.699550	0.828927	0.044791	-123.352638	-86.674112	-94.102690			
26633	2304740	14.736469	-1.287889	-1.056459	-0.776686	0.841450	0.065860	-121.625684	-86.730906	-95.943935			
26634	2304765	14.868633	-1.289366	-1.032459	-0.841588	0.855869	0.082652	-119.793735	-86.783371	-97.899555			
26635	2304790	14.949780	-1.307381	-0.999213	-0.889066	0.864906	0.091973	-117.876125	-86.831644	-99.947685			
26636	2304815	14.999269	-1.307519	-0.959383	-0.925592	0.868550	0.105058	-115.881351	-86.874467	-102.079265			
26637	2304840	15.010234	-1.304873	-0.936757	-0.944896	0.866572	0.115624	-113.828390	-86.911732	-104.270784			
26638	2304865	14.952024	-1.364401	-0.824051	-0.958199	0.865604	0.122170	-111.724500	-86.943747	-106.515142			
26639	2304890	14.808551	-1.318085	-0.699113	-0.958536	0.850444	0.125723	-109.613364	-86.970073	-108.766744			
26640	2304915	14.625320	-1.252257	-0.635187	-0.934454	0.832235	0.125219	-107.511798	-86.991134	-111.006275			
26641	2304940	14.331801	-1.175596	-0.518223	-0.893537	0.805769	0.117116	-105.452496	-87.008028	-113.196560			
26642	2304965	14.036775	-1.162223	-0.394783	-0.827520	0.768422	0.102121	-103.472136	-87.021614	-115.298296			
26643	2304990	13.726731	-1.128108	-0.309843	-0.773640	0.728444	0.085697	-101.585243	-87.032553	-117.298689			
26644	2305015	13.459709	-0.997437	-0.294953	-0.712753	0.684112	0.061412	-99.810401	-87.042325	-119.179130			
26645	2305040	13.224378	-0.925812	-0.325383	-0.658979	0.640629	0.041573	-98.144489	-87.051096	-120.941765			
26646	2305065	13.000118	-0.790904	-0.345039	-0.618789	0.599247	0.031646	-96.581846	-87.057957	-122.595219			
26647	2305090	12.868236	-0.647704	-0.396407	-0.580268	0.566107	0.029115	-95.100214	-87.062435	-124.162022			
26648	2305115	12.703377	-0.570197	-0.521174	-0.554741	0.529559	0.036947	-93.712499	-87.063297	-125.632095			
26649	2305140	12.648712	-0.467977	-0.627130	-0.533308	0.503771	0.041193	-92.392509	-87.061657	-127.030304			
26650	2305165	12.545670	-0.459366	-0.726794	-0.520954	0.482492	0.051191	-91.131801	-87.056879	-128.367386			
26651	2305190	12.384875	-0.406650	-0.834394	-0.532116	0.467521	0.058213	-89.919224	-87.049595	-129.657880			
26654	2305215	12.251769	-0.286525	-0.954954	-0.547032	0.461301	0.068489	-88.734216	-87.039389	-130.923867			
26655	2305240	12.091148	-0.119670	-1.064744	-0.567947	0.464121	0.079915	-87.553932	-87.026264	-132.187188			
26656	2305265	11.851982	0.067750	-1.142630	-0.594474	0.470774	0.091101	-86.372465	-87.010143	-133.455516			
26657	2305290	11.536887	0.165690	-1.202298	-0.638996	0.485531	0.100300	-85.173078	-86.991185	-134.748195			
26658	2305315	11.300297	0.142887	-1.334022	-0.701735	0.506863	0.095212	-83.940871	-86.971164	-136.083673			
26659	2305340	11.062334	0.266935	-1.384272	-0.798036	0.534547	0.088902	-82.662951	-86.950110	-137.477855			
26660	2305365	10.785897	0.520074	-1.386264	-0.882775	0.561609	0.076345	-81.339679	-86.928625	-138.929638			
26661	2305390	10.487374	0.814277	-1.345562	-0.965837	0.589012	0.073111	-79.975335	-86.905148	-140.434497			
26662	2305415	10.285029	0.947629	-1.314668	-1.047327	0.610763	0.072511	-78.589797	-86.879183	-141.973170			
26663	2305440	10.089898	1.128037	-1.378048	-1.136260	0.634873	0.070260	-77.178409	-86.850837	-143.549666			
26664	2305465	9.909726	1.337046	-1.365391	-1.214620	0.658338	0.081083	-75.754099	-86.818072	-145.150391			
26665	2305490	9.756930	1.423683	-1.337317	-1.301540	0.679855	0.085324	-74.324161	-86.781733	-146.769276			
26666	2305515	9.609767	1.654552	-1.288949	-1.378980	0.693711	0.094397	-72.914822	-86.741316	-148.379495			
26667	2305540	9.512444	1.780156	-1.390773	-1.449823	0.708378	0.111131	-71.531145	-86.695812	-149.973449			
26668	2305565	9.510897	1.882766	-1.265591	-1.534451	0.719734	0.130425	-70.190849	-86.645009	-151.536167			
26669	2305590	9.416237	2.042532	-1.324902	-1.602828	0.727255	0.152066	-68.906400	-86.588859	-153.052839			
26670	2305615	9.430045	2.155105	-1.262119	-1.653612	0.740049	0.176571	-67.670514	-86.526786	-154.528952			
26671	2305640	9.554072	2.297885	-1.217721	-1.694748	0.749566	0.204136	-66.493113	-86.458722	-155.951764			
26672	2305665	9.693473	2.428724	-1.258423	-1.717767	0.749130	0.230974	-65.394996	-86.385458	-157.298549			
26673	2305690	9.860335	2.508604	-1.303192	-1.744257	0.759818	0.261386	-64.357688	-86.306046	-158.588317			
26674	2305715	10.010464	2.522313	-1.293787	-1.773052	0.768232	0.292988	-63.389357	-86.220600	-159.813833			
26675	2305740	10.119403	2.651498	-1.270704	-1.800032	0.773861	0.314901	-62.483743	-86.130711	-160.979871			
26676	2305765	10.251825	2.780782	-1.278170	-1.817923	0.786715	0.341314	-61.630694	-86.035433	-162.095916			
26677	2305790	10.355082	2.801295	-1.251435	-1.802703	0.792385	0.365208	-60.835563	-85.935678	-163.151847			
26678	2305815	10.499516	2.747467	-1.210318	-1.781653	0.802217	0.393780	-60.094190	-85.830688	-164.151513			
26679	2305840	10.632942	2.674434	-1.186574	-1.759719	0.806552	0.418680	-59.409086	-85.721417	-165.091222			
26680	2305865	10.788405	2.602870	-1.164157	-1.709943	0.811903	0.437333	-58.767127	-85.608666	-165.980648			
26681	2305890	10.917569	2.430801	-1.139358	-1.655166	0.809781	0.452351	-58.173587	-85.493523	-166.813774			
26682	2305915	11.081005	2.155638	-1.122892	-1.565580	0.801071	0.450151	-57.614592	-85.378679	-167.599940			
26683	2305940	11.234956	1.932929	-1.140870	-1.469353	0.788353	0.442241	-57.085001	-85.265169	-168.342466			
26684	2305965	11.306277	1.726632	-1.146816	-1.374943	0.776777	0.416947	-56.564583	-85.155050	-169.062335			
26685	2305990	11.392729	1.543599	-1.122118	-1.283836	0.758748	0.387816	-56.056624	-85.049301	-169.756716			
26686	2306015	11.510955	1.370365	-1.139966	-1.196348	0.744050	0.366655	-55.562215	-84.946748	-170.425403			
26687	2306040	12.355115	1.412511	-1.082377	-1.125897	0.721045	0.368487	-55.112027	-84.845356	-171.039288			
26688	2306065	12.889189	1.141515	-1.110617	-1.047984	0.694008	0.417517	-54.749840	-84.740057	-171.553703			
26689	2306090	12.902402	0.690540	-1.141153	-1.000239	0.695810	0.447117	-54.422184	-84.630873	-172.026657			
26690	2306115	12.084451	0.166157	-0.929372	-0.978710	0.704202	0.398043	-54.054706	-84.526455	-172.536936			
26691	2306140	10.874948	-0.078986	-0.402202	-0.962143	0.683652	0.309125	-53.647645	-84.433707	-173.084344			
26692	2306165	9.831164	-0.061340	0.075395	-0.951174	0.600980	0.203234	-53.258651	-84.359832	-173.612097			
26693	2306190	9.293975	0.095089	0.179130	-0.931759	0.486021	0.107463	-52.927174	-84.306493	-174.079314			
26694	2306215	9.164367	0.537332	-0.066618	-0.873074	0.396471	0.043444	-52.641060	-84.267997	-174.492844			
26695	2306240	9.314208	0.986165	-0.224378	-0.766127	0.359473	0.075506	-52.413184	-84.228866	-174.832159			
26696	2306265	9.688707	1.105163	-0.098892	-0.608388	0.340781	0.185268	-52.282037	-84.178817	-175.051565			
26697	2306290	10.213980	1.019992	0.201373	-0.455709	0.299239	0.349091	-52.317480	-84.113821	-175.081545			
26698	2306315	10.839159	0.670416	0.603142	-0.364313	0.196123	0.534935	-52.607950	-84.036759	-174.842233			
26699	2306340	11.546668	0.041920	0.954747	-0.349441	0.032412	0.670652	-53.176687	-83.958123	-174.320682			
26700	2306365	12.170045	-0.809060	1.231201	-0.442532	-0.200370	0.739056	-54.049944	-83.890699	-173.506230			
26701	2306390	12.631576	-1.556024	1.286081	-0.611931	-0.463107	0.710696	-55.192664	-83.846870	-172.445086			
26702	2306415	13.030806	-2.007788	1.088081	-0.830570	-0.728871	0.608459	-56.568955	-83.834068	-171.180708			
26703	2306440	13.078730	-2.089803	0.594858	-1.044509	-0.956955	0.469132	-58.127772	-83.852199	-169.763323			
26704	2306465	12.920676	-1.719318	0.089903	-1.237568	-1.112103	0.323545	-59.802800	-83.895361	-168.256953			
26705	2306490	12.675518	-1.267067	-0.211510	-1.379437	-1.199843	0.212422	-61.551919	-83.953736	-166.696653			
26706	2306515	12.280116	-0.898849	-0.497428	-1.452406	-1.229341	0.136358	-63.331983	-84.018637	-165.116189			
26707	2306540	11.870931	-0.541536	-0.778023	-1.447999	-1.207877	0.100844	-65.098690	-84.081603	-163.548441			
26708	2306565	11.516354	-0.298768	-0.955316	-1.409563	-1.135289	0.091118	-66.795815	-84.136661	-162.045276			
26709	2306590	11.060747	-0.166541	-0.988312	-1.328654	-1.028433	0.098550	-68.374511	-84.180465	-160.649641			
26710	2306615	10.603692	-0.017913	-0.977388	-1.219223	-0.886241	0.119682	-69.781116	-84.210475	-159.411576			
26711	2306640	10.233147	0.091817	-0.885477	-1.107017	-0.718363	0.135492	-70.966382	-84.227413	-158.379622			
26712	2306665	9.976812	0.197318	-0.756354	-0.980853	-0.541455	0.161625	-71.912423	-84.230799	-157.569967			
26713	2306690	9.849632	0.159588	-0.587752	-0.875895	-0.351454	0.184917	-72.597116	-84.221554	-157.007877			
26714	2306715	9.857172	0.102211	-0.324812	-0.771549	-0.167483	0.206129	-73.025504	-84.201092	-156.688604			
26715	2306740	9.940468	0.070933	-0.056529	-0.688701	0.013222	0.232948	-73.206780	-84.169243	-156.605541			
26716	2306765	10.045583	0.014576	0.287488	-0.622282	0.178587	0.266884	-73.170119	-84.125880	-156.731988			
26717	2306790	10.183612	-0.089958	0.660523	-0.563520	0.321026	0.284548	-72.945289	-84.074121	-157.039155			
26718	2306815	10.281818	-0.135363	1.021820	-0.517267	0.430967	0.295734	-72.580028	-84.016027	-157.481087			
26719	2306840	10.382540	-0.149520	1.498795	-0.465740	0.512669	0.300013	-72.111350	-83.953444	-158.019434			
26720	2306865	10.462765	-0.160725	1.915970	-0.423883	0.562078	0.302714	-71.585471	-83.887800	-158.609338			
26721	2306890	10.562102	-0.203759	2.384861	-0.373888	0.574654	0.296766	-71.046069	-83.821809	-159.205714			
26722	2306915	10.594147	-0.227307	2.784670	-0.329918	0.558801	0.283757	-70.526680	-83.757763	-159.775845			
26723	2306940	10.560448	-0.210447	3.058387	-0.280210	0.506690	0.282478	-70.073885	-83.695860	-160.271739			
26724	2306965	10.580365	-0.218468	3.357328	-0.238614	0.440669	0.273988	-69.700110	-83.637961	-160.682189			
26725	2306990	10.520421	-0.303296	3.602789	-0.199613	0.343661	0.266448	-69.440101	-83.585675	-160.972585			
26726	2307015	10.438713	-0.470044	3.689852	-0.179963	0.237571	0.253060	-69.301430	-83.540452	-161.138149			
26727	2307040	10.285777	-0.588098	3.638871	-0.177346	0.126112	0.243022	-69.290744	-83.502169	-161.174461			
26728	2307065	10.062812	-0.600185	3.566997	-0.188248	0.015849	0.226720	-69.403748	-83.471644	-161.087853			
26729	2307090	9.786369	-0.670954	3.372605	-0.224450	-0.086431	0.220039	-69.637552	-83.447112	-160.884870			
26730	2307115	9.474468	-0.651935	3.084170	-0.277542	-0.166792	0.212374	-69.968033	-83.427496	-160.592241			
26731	2307140	9.133727	-0.651982	2.745181	-0.351016	-0.230366	0.209484	-70.379968	-83.411117	-160.228178			
26732	2307165	8.824784	-0.613497	2.386410	-0.435042	-0.271326	0.217143	-70.852951	-83.395329	-159.814765			
26733	2307190	8.532107	-0.617858	2.104554	-0.526688	-0.285849	0.234547	-71.360763	-83.377449	-159.379490			
26734	2307215	8.228339	-0.593554	1.874582	-0.619510	-0.290652	0.252067	-71.891781	-83.356974	-158.934208			
26735	2307240	7.994768	-0.600849	1.639302	-0.702886	-0.285502	0.268821	-72.431724	-83.333486	-158.491958			
