PacketCounter	SampleTimeFine	Acc_X	Acc_Y	Acc_Z	Gyr_X	Gyr_Y	Gyr_Z	Roll	Pitch	Yaw
62630	1580715	9.705232	-0.056793	1.528832	-0.024481	-0.014402	-0.010070	1.272588	-80.821219	137.404365
62631	1580740	9.709369	-0.045828	1.531514	-0.028133	-0.017813	-0.012000	1.282374	-80.824412	137.390372			
62632	1580765	9.698350	-0.058177	1.524846	-0.034784	-0.012699	-0.012118	1.291217	-80.826871	137.376370			
62633	1580790	9.688675	-0.084290	1.527388	-0.032607	-0.014867	-0.007857	1.296643	-80.829654	137.366144			
62634	1580815	9.677565	-0.102286	1.551255	-0.037183	-0.020590	-0.010547	1.304229	-80.833426	137.352109			
62635	1580840	9.669300	-0.077568	1.561953	-0.033768	-0.021778	-0.008558	1.310262	-80.837196	137.341100			
62636	1580865	9.667924	-0.072083	1.569935	-0.032559	-0.019333	-0.011463	1.319007	-80.840606	137.327521			
62637	1580890	9.696743	-0.094198	1.597790	-0.038116	-0.024854	-0.009793	1.325593	-80.844812	137.315322			
62638	1580915	9.699484	-0.105197	1.593787	-0.034715	-0.024673	-0.006154	1.329740	-80.849182	137.305120			
62639	1580940	9.687127	-0.084566	1.593858	-0.035502	-0.027232	-0.006410	1.333757	-80.853739	137.295902			
62640	1580965	9.662317	-0.107896	1.585784	-0.033483	-0.034940	-0.008988	1.340526	-80.859392	137.284191			
62641	1580990	9.662260	-0.124468	1.599020	-0.034754	-0.033091	-0.005135	1.343654	-80.864793	137.275983			
62642	1581015	9.680274	-0.083141	1.581865	-0.035258	-0.034195	-0.006405	1.348169	-80.870524	137.265321			
62643	1581040	9.692638	-0.087295	1.589842	-0.040177	-0.037920	-0.008212	1.353379	-80.876606	137.254217			
62644	1581065	9.665007	-0.140956	1.596302	-0.039303	-0.039357	0.002119	1.349538	-80.882928	137.252408			
62645	1581090	9.696629	-0.132783	1.621597	-0.041285	-0.039385	0.000142	1.347178	-80.889248	137.248812			
62646	1581115	9.700785	-0.116289	1.620337	-0.040117	-0.043027	-0.004217	1.349250	-80.896251	137.239910			
62647	1581140	9.698056	-0.112122	1.611040	-0.038809	-0.040039	-0.008899	1.355348	-80.902633	137.228107			
62648	1581165	9.656800	-0.083219	1.605790	-0.038430	-0.041711	-0.005473	1.358483	-80.909267	137.219360			
62649	1581190	9.682952	-0.079145	1.612462	-0.038405	-0.040923	-0.000341	1.357017	-80.915805	137.215276			
62650	1581215	9.641692	-0.054330	1.604553	-0.040162	-0.043133	-0.002193	1.357297	-80.922829	137.208179			
62651	1581240	9.663767	-0.039171	1.601926	-0.038037	-0.038995	0.000988	1.354656	-80.929096	137.205338			
62652	1581265	9.625131	-0.061247	1.611161	-0.042166	-0.038353	-0.003353	1.355306	-80.935256	137.198566			
62653	1581290	9.627951	-0.033700	1.605940	-0.040095	-0.041936	0.000721	1.352675	-80.941943	137.195417			
62654	1581315	9.622467	0.028107	1.634009	-0.034405	-0.038138	-0.005132	1.356327	-80.948241	137.185743			
62655	1581340	9.662362	0.003338	1.634012	-0.026837	-0.036186	-0.002600	1.358465	-80.954093	137.179687			
62656	1581365	9.665114	-0.025521	1.619274	-0.026049	-0.029449	-0.000571	1.358752	-80.958988	137.175621			
62657	1581390	9.685819	-0.013088	1.610023	-0.030859	-0.031964	-0.002256	1.359922	-80.964236	137.169962			
62658	1581415	9.687250	0.000724	1.595437	-0.039729	-0.032522	0.002050	1.356244	-80.969754	137.166942			
62659	1581440	9.654216	-0.012968	1.579454	-0.040978	-0.026383	0.002478	1.351583	-80.974219	137.165720			
62660	1581465	9.665252	-0.012926	1.567512	-0.046723	-0.022164	0.002111	1.346338	-80.978080	137.164257			
62661	1581490	9.648726	0.014525	1.584844	-0.048999	-0.019956	0.000443	1.342225	-80.981618	137.161317			
62662	1581515	9.630803	0.010366	1.591446	-0.044207	-0.019729	0.003015	1.336757	-80.985306	137.159462			
62663	1581540	9.652855	0.015877	1.588841	-0.042944	-0.012808	0.000486	1.333320	-80.987821	137.156716			
62664	1581565	9.673523	0.025501	1.592855	-0.041051	-0.011602	0.000435	1.330174	-80.990164	137.153950			
62665	1581590	9.677607	0.021306	1.608794	-0.035571	-0.014976	0.001243	1.327155	-80.992992	137.151851			
62666	1581615	9.667955	0.018521	1.612766	-0.037786	-0.013807	-0.002006	1.327015	-80.995814	137.145538			
62667	1581640	9.677672	0.044729	1.595573	-0.036718	-0.011671	0.000219	1.324688	-80.998166	137.142572			
62668	1581665	9.652879	0.022783	1.579577	-0.039040	-0.012910	0.002290	1.320181	-81.000702	137.141475			
62669	1581690	9.666631	0.004861	1.583498	-0.039138	-0.007480	0.002220	1.315610	-81.002460	137.140429			
62670	1581715	9.659682	-0.022652	1.587396	-0.036526	-0.008404	0.000596	1.313185	-81.004517	137.136617			
62671	1581740	9.673417	-0.036430	1.600636	-0.038326	-0.006200	0.002481	1.308467	-81.006093	137.135838			
62672	1581765	9.660973	-0.024157	1.620607	-0.035463	-0.003962	-0.001110	1.307362	-81.007336	137.131817			
62673	1581790	9.699560	-0.036474	1.612608	-0.037208	-0.006403	0.005786	1.299816	-81.008952	137.134063			
62674	1581815	9.659523	-0.070928	1.629753	-0.034417	-0.003122	0.003900	1.294590	-81.010262	137.133393			
62675	1581840	9.623691	-0.112129	1.611008	-0.034127	-0.004444	0.005235	1.287942	-81.011595	137.135177			
62676	1581865	9.638782	-0.120459	1.633522	-0.041448	-0.001194	0.004227	1.281090	-81.012460	137.136106			
62677	1581890	9.623573	-0.143862	1.642766	-0.032131	-0.007772	0.000943	1.278679	-81.014256	137.133890			
62678	1581915	9.613890	-0.156254	1.648026	-0.029865	-0.005983	0.001404	1.276413	-81.015967	137.130877			
62679	1581940	9.606969	-0.171404	1.653306	-0.023471	-0.006139	0.003798	1.272623	-81.017538	137.131313			
62680	1581965	9.598689	-0.174207	1.661260	-0.014222	-0.002624	0.005007	1.268992	-81.018610	137.132930			
62681	1581990	9.591873	-0.161733	1.637403	-0.014168	-0.006936	0.002731	1.267516	-81.020292	137.132372			
62682	1582015	9.593193	-0.157685	1.663975	-0.013682	-0.002900	0.007610	1.261872	-81.021581	137.135118			
62683	1582040	9.608321	-0.155020	1.675952	-0.009929	-0.008738	0.010179	1.254287	-81.023544	137.141361			
62684	1582065	9.595877	-0.155070	1.693196	-0.009899	-0.007237	0.016385	1.241045	-81.025312	137.153334			
62685	1582090	9.619259	-0.167461	1.699848	-0.000709	-0.006345	0.012913	1.232246	-81.026941	137.162141			
62686	1582115	9.598624	-0.179783	1.681194	-0.001360	-0.009607	0.012466	1.224077	-81.029203	137.169226			
62687	1582140	9.611065	-0.145390	1.685283	0.007130	-0.007747	0.017852	1.211941	-81.031047	137.182549			
62688	1582165	9.622141	-0.127513	1.673354	0.007820	-0.007962	0.016274	1.201335	-81.032917	137.194423			
62689	1582190	9.622156	-0.113742	1.672112	0.019024	-0.009713	0.019531	1.189405	-81.035047	137.209262			
62690	1582215	9.612566	-0.082047	1.668227	0.017303	-0.003628	0.016473	1.180135	-81.036463	137.220167			
62691	1582240	9.638773	-0.072452	1.664270	0.024280	-0.000066	0.020202	1.168160	-81.037212	137.235814			
62692	1582265	9.604372	-0.073756	1.650943	0.027531	0.001454	0.015783	1.160632	-81.037731	137.247429			
62693	1582290	9.604410	-0.068187	1.636378	0.032355	0.000100	0.019316	1.150610	-81.038453	137.262269			
62694	1582315	9.611253	-0.105327	1.633594	0.031933	0.002462	0.019306	1.140738	-81.039003	137.275906			
62695	1582340	9.587917	-0.102432	1.601694	0.039989	0.006355	0.015754	1.134930	-81.038819	137.287587			
62696	1582365	9.565828	-0.143689	1.598882	0.046702	0.008716	0.016247	1.129594	-81.038298	137.299764			
62697	1582390	9.560325	-0.161550	1.586848	0.053157	0.002523	0.021113	1.120874	-81.038677	137.316302			
62698	1582415	9.594808	-0.155958	1.568292	0.061502	0.008282	0.018202	1.116127	-81.038388	137.329029			
62699	1582440	9.641685	-0.125741	1.568425	0.070934	0.007030	0.016445	1.114113	-81.038109	137.341357			
62700	1582465	9.681641	-0.100996	1.579146	0.078106	0.002524	0.018845	1.111026	-81.038481	137.355811			
62701	1582490	9.666562	-0.066576	1.569972	0.074366	0.005212	0.018755	1.107438	-81.038468	137.370229			
62702	1582515	9.655550	-0.069275	1.563295	0.078270	0.000615	0.019293	1.104231	-81.039279	137.383824			
62703	1582540	9.663907	-0.066420	1.530090	0.075214	0.000696	0.020029	1.099684	-81.039916	137.399336			
62704	1582565	9.636270	-0.162663	1.509836	0.066578	0.001574	0.018503	1.095270	-81.040423	137.413462			
62705	1582590	9.678895	-0.199815	1.517677	0.049557	-0.000036	0.020269	1.086840	-81.041165	137.429184			
62706	1582615	9.660850	-0.253510	1.536103	0.035991	-0.002787	0.022955	1.074289	-81.042472	137.446090			
62707	1582640	9.662307	-0.228732	1.524221	0.033256	-0.006805	0.022937	1.061207	-81.044190	137.464157			
62708	1582665	9.687130	-0.206688	1.522976	0.029726	-0.011946	0.024626	1.046164	-81.046648	137.483699			
62711	1582690	9.689938	-0.190161	1.511095	0.031382	-0.014520	0.019510	1.036043	-81.049460	137.498498			
62712	1582715	9.670670	-0.213489	1.493722	0.037456	-0.023547	0.026721	1.020578	-81.053748	137.518543			
62713	1582740	9.625205	-0.243636	1.478969	0.032194	-0.025138	0.026932	1.003967	-81.058098	137.540029			
62714	1582765	9.622416	-0.236878	1.501550	0.031495	-0.030820	0.023004	0.990905	-81.063252	137.557822			
62715	1582790	9.619633	-0.198475	1.528286	0.040971	-0.037098	0.030625	0.972334	-81.069322	137.582563			
62716	1582815	9.611373	-0.168271	1.547004	0.047801	-0.043367	0.034611	0.951366	-81.076464	137.609657			
62717	1582840	9.590769	-0.155811	1.532391	0.042440	-0.053629	0.035462	0.928772	-81.084911	137.638684			
62718	1582865	9.611485	-0.146159	1.512511	0.045976	-0.065061	0.031763	0.910180	-81.094985	137.664171			
62719	1582890	9.640366	-0.139355	1.535146	0.031123	-0.068843	0.037540	0.884176	-81.105612	137.695006			
62720	1582915	9.659599	-0.131220	1.564431	0.021563	-0.072412	0.037090	0.857381	-81.116912	137.724180			
62721	1582940	9.669265	-0.113338	1.561812	0.007896	-0.083648	0.040224	0.825642	-81.129660	137.757451			
62722	1582965	9.670603	-0.123004	1.571097	-0.006098	-0.090936	0.042717	0.789605	-81.143454	137.793041			
62723	1582990	9.652735	-0.088615	1.576544	-0.014269	-0.093673	0.042655	0.752376	-81.157637	137.828653			
62724	1583015	9.652718	-0.100977	1.577801	-0.020994	-0.103934	0.047553	0.709844	-81.173459	137.867572			
62725	1583040	9.687068	-0.088786	1.617729	-0.027837	-0.104125	0.050858	0.662955	-81.189145	137.910990			
62726	1583065	9.685627	-0.113581	1.626963	-0.038426	-0.110750	0.051035	0.614288	-81.205774	137.954670			
62727	1583090	9.664917	-0.110887	1.649564	-0.049105	-0.122347	0.060080	0.555631	-81.224071	138.006908			
62728	1583115	9.642804	-0.146688	1.658718	-0.054389	-0.117514	0.062442	0.493920	-81.241834	138.060387			
62729	1583140	9.631825	-0.157589	1.634749	-0.060825	-0.125033	0.055045	0.437826	-81.260494	138.108328			
62730	1583165	9.622168	-0.157640	1.644054	-0.063103	-0.121169	0.056925	0.379403	-81.278595	138.158293			
62731	1583190	9.584990	-0.183701	1.624015	-0.065552	-0.125389	0.060518	0.317065	-81.297295	138.211862			
62732	1583215	9.571366	-0.125823	1.596289	-0.065179	-0.124240	0.068630	0.247080	-81.315989	138.272132			
62733	1583240	9.564444	-0.134109	1.606875	-0.070767	-0.123210	0.072765	0.171962	-81.334364	138.337868			
62734	1583265	9.534127	-0.149211	1.605499	-0.071624	-0.129431	0.079224	0.090350	-81.353619	138.410046			
62735	1583290	9.575489	-0.150558	1.588221	-0.064056	-0.126359	0.084224	0.004759	-81.372418	138.487340			
62736	1583315	9.572705	-0.160176	1.593513	-0.064056	-0.124398	0.094993	-0.091221	-81.391078	138.574052			
62737	1583340	9.582327	-0.209635	1.573419	-0.055654	-0.127190	0.096835	-0.188300	-81.409954	138.664174			
62738	1583365	9.600240	-0.213735	1.566774	-0.050417	-0.131932	0.096437	-0.284683	-81.429487	138.754347			
62739	1583390	9.633279	-0.198706	1.581437	-0.043467	-0.130749	0.106882	-0.390435	-81.448817	138.854997			
62740	1583415	9.550693	-0.206765	1.554809	-0.034572	-0.135252	0.109924	-0.498184	-81.468922	138.957854			
62741	1583440	9.570127	-0.180538	1.509718	-0.033832	-0.138591	0.108857	-0.605474	-81.489317	139.061443			
62742	1583465	9.599126	-0.159821	1.489898	-0.032777	-0.137810	0.121853	-0.725576	-81.509548	139.178134			
62743	1583490	9.603394	-0.152738	1.438101	-0.029929	-0.133428	0.128715	-0.852370	-81.529100	139.301998			
62744	1583515	9.587021	-0.118189	1.396998	-0.034603	-0.121251	0.135128	-0.986271	-81.547013	139.431259			
62745	1583540	9.577503	-0.054832	1.379953	-0.032350	-0.106992	0.136343	-1.121431	-81.562674	139.563218			
62746	1583565	9.591393	-0.042363	1.342795	-0.031537	-0.095527	0.142419	-1.262603	-81.576629	139.701368			
62747	1583590	9.576351	-0.010644	1.317643	-0.039437	-0.080711	0.141840	-1.404456	-81.588415	139.839058			
62748	1583615	9.555762	-0.020082	1.285715	-0.042473	-0.072148	0.154033	-1.558622	-81.599037	139.987643			
62749	1583640	9.554503	0.025365	1.261930	-0.046156	-0.063646	0.150327	-1.709964	-81.608238	140.133943			
62750	1583665	9.554636	0.095589	1.252858	-0.055736	-0.048624	0.154291	-1.866380	-81.615214	140.283983			
62751	1583690	9.601477	0.073617	1.232874	-0.055240	-0.039199	0.156385	-2.024689	-81.620770	140.436006			
62752	1583715	9.616550	0.065243	1.260753	-0.060697	-0.030501	0.160639	-2.187696	-81.625157	140.590879			
62753	1583740	9.617871	0.033615	1.260662	-0.073658	-0.021563	0.167495	-2.359137	-81.627999	140.753504			
62754	1583765	9.654939	-0.005021	1.293737	-0.073171	-0.018708	0.170159	-2.533088	-81.630344	140.918737			
62755	1583790	9.631493	-0.016041	1.297694	-0.075597	-0.021745	0.163743	-2.701377	-81.633094	141.077896			
62756	1583815	9.616322	-0.018776	1.305643	-0.081505	-0.020871	0.174400	-2.880854	-81.635736	141.246397			
62757	1583840	9.609395	-0.049017	1.300222	-0.079571	-0.024369	0.163269	-3.049600	-81.638725	141.405439			
62758	1583865	9.610742	-0.071047	1.298835	-0.074437	-0.026599	0.156026	-3.210797	-81.642022	141.557593			
62759	1583890	9.577569	-0.108306	1.326584	-0.076918	-0.032555	0.158986	-3.375697	-81.646083	141.713128			
62760	1583915	9.536083	-0.177126	1.354216	-0.062497	-0.042976	0.163542	-3.543671	-81.651692	141.872744			
62761	1583940	9.530498	-0.228042	1.354046	-0.060049	-0.052960	0.162618	-3.711319	-81.658506	142.033495			
62762	1583965	9.542861	-0.254187	1.353966	-0.050652	-0.064214	0.166439	-3.882359	-81.666823	142.199031			
62763	1583990	9.509805	-0.272005	1.340622	-0.054047	-0.074625	0.166294	-4.054799	-81.676557	142.365487			
62764	1584015	9.507025	-0.274796	1.352555	-0.055964	-0.083096	0.163625	-4.225853	-81.687619	142.529131			
62765	1584040	9.497464	-0.259603	1.328683	-0.056119	-0.087857	0.173511	-4.407464	-81.699019	142.704546			
62766	1584065	9.471344	-0.245785	1.312766	-0.066131	-0.098202	0.181040	-4.599191	-81.711728	142.888730			
62767	1584090	9.511441	-0.178283	1.293093	-0.085959	-0.106217	0.185327	-4.799202	-81.725441	143.078409			
62768	1584115	9.494985	-0.137060	1.287899	-0.102121	-0.114250	0.201046	-5.018279	-81.740170	143.283865			
62769	1584140	9.522561	-0.125984	1.279967	-0.120798	-0.120232	0.216867	-5.256934	-81.755268	143.507535			
62770	1584165	9.572301	-0.070856	1.248324	-0.143015	-0.121504	0.223285	-5.506064	-81.770324	143.738566			
62771	1584190	9.615031	-0.061217	1.241733	-0.166044	-0.124340	0.235717	-5.771925	-81.785461	143.983160			
62772	1584215	9.652187	-0.057134	1.256366	-0.175898	-0.128788	0.236215	-6.041073	-81.801224	144.228495			
62773	1584240	9.672864	-0.069477	1.243047	-0.192067	-0.125039	0.237672	-6.314571	-81.816100	144.477019			
62774	1584265	9.654929	-0.109308	1.228335	-0.213918	-0.118400	0.235908	-6.589637	-81.829891	144.723957			
62775	1584290	9.643997	-0.065250	1.220440	-0.238678	-0.102799	0.238803	-6.870140	-81.841243	144.972797			
62776	1584315	9.645365	-0.040602	1.243159	-0.255306	-0.094657	0.239426	-7.153363	-81.851416	145.220828			
62777	1584340	9.609431	-0.065450	1.274919	-0.269492	-0.087090	0.248431	-7.447235	-81.860008	145.478701			
62778	1584365	9.667371	-0.046146	1.251138	-0.290957	-0.079986	0.255288	-7.750613	-81.867272	145.743066			
62779	1584390	9.741817	-0.033715	1.228619	-0.311463	-0.067481	0.272733	-8.073000	-81.872213	146.023662			
62780	1584415	9.718467	-0.048673	1.191345	-0.336906	-0.055543	0.278606	-8.403490	-81.875279	146.307622			
62781	1584440	9.686796	-0.099458	1.161937	-0.367454	-0.041749	0.272076	-8.729983	-81.876135	146.584260			
62782	1584465	9.661930	-0.147598	1.163063	-0.397934	-0.025789	0.277272	-9.063531	-81.874393	146.863615			
62783	1584490	9.693540	-0.173780	1.173650	-0.423889	-0.013267	0.283395	-9.404669	-81.870507	147.146883			
62784	1584515	9.754310	-0.118632	1.133993	-0.457168	0.000726	0.293066	-9.757488	-81.864336	147.435997			
62785	1584540	9.765326	-0.161210	1.116568	-0.503516	0.012104	0.310372	-10.131462	-81.855707	147.740923			
62786	1584565	9.774937	-0.165346	1.121890	-0.540464	0.025018	0.320141	-10.517252	-81.844721	148.052446			
62787	1584590	9.740392	-0.175115	1.163022	-0.565581	0.034837	0.329247	-10.912766	-81.831810	148.370166			
62788	1584615	9.774763	-0.193019	1.178938	-0.593530	0.040324	0.326619	-11.307570	-81.818055	148.681988			
62789	1584640	9.781648	-0.202681	1.172255	-0.611396	0.047405	0.336860	-11.712212	-81.802538	149.002323			
62790	1584665	9.761003	-0.236978	1.146877	-0.639612	0.051998	0.346075	-12.127498	-81.785778	149.329343			
62791	1584690	9.749908	-0.300193	1.141382	-0.685108	0.057566	0.355591	-12.555776	-81.767605	149.662919			
62792	1584715	9.737488	-0.338691	1.130590	-0.713898	0.063010	0.366134	-12.995521	-81.748143	150.002769			
62793	1584740	9.705803	-0.353791	1.123864	-0.743516	0.067662	0.375395	-13.445365	-81.727183	150.349716			
62794	1584765	9.705835	-0.404517	1.079874	-0.768158	0.072864	0.387043	-13.906596	-81.704710	150.704622			
62795	1584790	9.731988	-0.437406	1.066469	-0.793174	0.073467	0.383234	-14.365423	-81.681875	151.053498			
62796	1584815	9.719629	-0.449744	1.043823	-0.818640	0.075571	0.388734	-14.830468	-81.658313	151.403805			
62797	1584840	9.752674	-0.436034	1.055837	-0.842613	0.076017	0.386646	-15.294415	-81.634187	151.750739			
62798	1584865	9.832529	-0.411379	1.085216	-0.860843	0.080782	0.387073	-15.757769	-81.608980	152.094458			
62799	1584890	9.916660	-0.376896	1.053475	-0.872632	0.080806	0.379320	-16.213164	-81.583675	152.428446			
62800	1584915	9.949877	-0.325909	1.019120	-0.892993	0.076795	0.374159	-16.665587	-81.558914	152.755292			
62801	1584940	9.966545	-0.285863	0.984697	-0.901468	0.077525	0.375421	-17.117714	-81.533452	153.081844			
62802	1584965	9.952902	-0.274729	0.939551	-0.916316	0.080772	0.373402	-17.566835	-81.507255	153.403228			
62803	1584990	9.904543	-0.296851	0.989967	-0.921308	0.084960	0.371710	-18.011516	-81.480193	153.719422			
62804	1585015	9.825907	-0.391807	0.989644	-0.925529	0.082029	0.371862	-18.455587	-81.453331	154.033182			
62805	1585040	9.798245	-0.464664	0.989345	-0.921682	0.083011	0.361820	-18.887195	-81.426270	154.336146			
62806	1585065	9.754186	-0.461868	0.987977	-0.920405	0.082821	0.354415	-19.309740	-81.399246	154.630152			
62807	1585090	9.714118	-0.574638	0.972993	-0.924678	0.088799	0.344427	-19.719868	-81.371574	154.911000			
62808	1585115	9.707431	-0.556460	0.899954	-0.927162	0.091741	0.336294	-20.120216	-81.343779	155.180355			
62809	1585140	9.689531	-0.528998	0.910646	-0.940702	0.094858	0.330478	-20.513992	-81.315401	155.442383			
62810	1585165	9.666239	-0.493117	0.885510	-0.939237	0.095923	0.325549	-20.900760	-81.286862	155.697552			
62813	1585190	9.705084	-0.432348	0.806004	-0.942260	0.100181	0.323686	-21.282808	-81.257591	155.947528			
62814	1585215	9.789253	-0.381337	0.778310	-0.950554	0.101902	0.318430	-21.659049	-81.228291	156.189152			
62815	1585240	9.776825	-0.422594	0.766233	-0.959526	0.102411	0.313288	-22.029673	-81.198783	156.425105			
62816	1585265	9.656990	-0.491184	0.730039	-0.969096	0.100479	0.308460	-22.396195	-81.169560	156.655540			
62817	1585290	9.570128	-0.509169	0.756483	-0.978485	0.102925	0.316997	-22.768460	-81.139318	156.890443			
62818	1585315	9.538368	-0.564148	0.758963	-0.981503	0.093685	0.318498	-23.143942	-81.110153	157.126848			
62819	1585340	9.560377	-0.565606	0.766920	-0.998523	0.090559	0.324893	-23.526064	-81.080617	157.368862			
62820	1585365	9.559026	-0.517483	0.783035	-1.013112	0.073707	0.328659	-23.917542	-81.052822	157.618250			
62821	1585390	9.572879	-0.503646	0.760480	-1.030466	0.067478	0.320989	-24.305490	-81.026027	157.861566			
62822	1585415	9.589334	-0.521548	0.779026	-1.033260	0.055262	0.319903	-24.695964	-81.000812	158.105679			
62823	1585440	9.654110	-0.468011	0.793857	-1.024738	0.038514	0.314917	-25.085447	-80.977634	158.351414			
62824	1585465	9.732551	-0.466806	0.824476	-1.019064	0.023125	0.307062	-25.472042	-80.956669	158.595064			
62825	1585490	9.768248	-0.508099	0.846992	-1.034399	0.012265	0.309987	-25.865978	-80.936665	158.843936			
62826	1585515	9.776403	-0.560456	0.858737	-1.059249	-0.002462	0.309238	-26.267593	-80.918514	159.095592			
62827	1585540	9.834143	-0.559248	0.899969	-1.084647	-0.012033	0.307085	-26.673313	-80.901265	159.349134			
62828	1585565	9.872856	-0.541169	0.853590	-1.099539	-0.030099	0.310592	-27.090025	-80.885810	159.611660			
62829	1585590	9.887896	-0.539950	0.897424	-1.108811	-0.040261	0.300776	-27.503313	-80.871993	159.869384			
62830	1585615	9.878171	-0.584013	0.907912	-1.117048	-0.044258	0.297923	-27.916522	-80.858762	160.124417			
62831	1585640	9.872409	-0.684553	0.946134	-1.118946	-0.055654	0.292085	-28.328897	-80.846889	160.379764			
62832	1585665	9.899747	-0.728779	1.004472	-1.111120	-0.054158	0.286314	-28.734147	-80.834933	160.629038			
62833	1585690	9.883006	-0.818362	1.037403	-1.112572	-0.062969	0.277951	-29.136057	-80.824381	160.874727			
62834	1585715	9.878747	-0.880300	1.053157	-1.110068	-0.057176	0.277266	-29.534182	-80.813066	161.115495			
62835	1585740	9.928308	-0.892633	1.051803	-1.113525	-0.049001	0.268994	-29.921680	-80.800873	161.346462			
62836	1585765	9.914454	-0.899666	1.082333	-1.114934	-0.043783	0.263341	-30.301921	-80.788192	161.569881			
62837	1585790	9.875754	-0.917670	1.123462	-1.119812	-0.031151	0.254169	-30.669393	-80.774386	161.779663			
62838	1585815	9.828804	-0.921990	1.176561	-1.131137	-0.021711	0.236712	-31.020564	-80.760675	161.969810			
62839	1585840	9.800988	-0.936111	1.274830	-1.122538	-0.012340	0.232084	-31.361533	-80.745790	162.152362			
62840	1585865	9.780109	-0.951527	1.351853	-1.114728	-0.004396	0.222065	-31.689399	-80.730513	162.322779			
62841	1585890	9.719270	-1.024650	1.407349	-1.094577	-0.000204	0.210685	-32.003155	-80.715434	162.481832			
62842	1585915	9.695640	-1.015324	1.504362	-1.070203	0.001617	0.202768	-32.306364	-80.700783	162.632248			
62843	1585940	9.636102	-1.072083	1.595860	-1.039425	-0.001033	0.199205	-32.602652	-80.686414	162.781618			
62844	1585965	9.573972	-1.147825	1.616828	-1.012376	-0.006603	0.192519	-32.892115	-80.673112	162.928003			
62845	1585990	9.509025	-1.237305	1.644412	-0.982057	-0.014155	0.178249	-33.169799	-80.661714	163.066858			
62846	1586015	9.455121	-1.274638	1.698721	-0.958178	-0.022390	0.168498	-33.440839	-80.652140	163.200960			
62847	1586040	9.386259	-1.222443	1.732039	-0.929757	-0.025041	0.156938	-33.699873	-80.643517	163.328515			
62848	1586065	9.350295	-1.193866	1.807900	-0.905189	-0.039592	0.147446	-33.955238	-80.637290	163.455920			
62849	1586090	9.310289	-1.169246	1.847825	-0.880571	-0.041932	0.139020	-34.201909	-80.631926	163.578089			
62850	1586115	9.288190	-1.174879	1.878310	-0.844924	-0.053468	0.135517	-34.446838	-80.628299	163.702200			
62851	1586140	9.290973	-1.132254	1.882455	-0.806743	-0.067332	0.126256	-34.685945	-80.626799	163.827423			
62852	1586165	9.297837	-1.130940	1.893132	-0.775665	-0.076169	0.123090	-34.922670	-80.626513	163.954745			
62853	1586190	9.341902	-1.151536	1.889071	-0.745714	-0.088200	0.115927	-35.156010	-80.628142	164.082985			
62854	1586215	9.332264	-1.180369	1.869052	-0.708513	-0.101651	0.112489	-35.388831	-80.631713	164.214662			
62855	1586240	9.357025	-1.194106	1.870373	-0.685613	-0.110066	0.107355	-35.618700	-80.636435	164.348105			
62856	1586265	9.354229	-1.232583	1.866230	-0.663474	-0.119983	0.100002	-35.845436	-80.642839	164.481586			
62857	1586290	9.347294	-1.224410	1.890152	-0.638217	-0.124231	0.088103	-36.062599	-80.650652	164.609027			
62858	1586315	9.367951	-1.209374	1.898243	-0.613381	-0.135036	0.080894	-36.277417	-80.660411	164.736292			
62859	1586340	9.383211	-1.199568	1.859726	-0.590721	-0.136887	0.083101	-36.491415	-80.669952	164.867414			
62860	1586365	9.416339	-1.159703	1.855885	-0.575633	-0.140420	0.082845	-36.705263	-80.679843	165.000571			
62861	1586390	9.450898	-1.092268	1.845492	-0.564382	-0.138569	0.083505	-36.917356	-80.689384	165.133579			
62862	1586415	9.477138	-1.130561	1.796225	-0.541607	-0.139499	0.079189	-37.124445	-80.699485	165.263453			
62863	1586440	9.526719	-1.130581	1.790949	-0.515506	-0.136443	0.076228	-37.324042	-80.709259	165.390884			
62864	1586465	9.539152	-1.089350	1.800374	-0.491606	-0.131553	0.072420	-37.515298	-80.718738	165.513330			
62865	1586490	9.572394	-1.001252	1.776777	-0.471141	-0.135231	0.067517	-37.702506	-80.728997	165.634642			
62866	1586515	9.619206	-1.054801	1.752721	-0.453356	-0.129913	0.057772	-37.878304	-80.739605	165.745645			
62867	1586540	9.627562	-1.010744	1.740890	-0.440435	-0.127229	0.054894	-38.048703	-80.749951	165.854374			
62868	1586565	9.615286	-0.940577	1.735826	-0.410868	-0.129284	0.044613	-38.209176	-80.761388	165.957334			
62869	1586590	9.594552	-0.918742	1.778377	-0.393036	-0.132303	0.045010	-38.369345	-80.773083	166.062571			
62870	1586615	9.604275	-0.865100	1.777248	-0.369644	-0.134161	0.050519	-38.531739	-80.784602	166.172180			
62871	1586640	9.642663	-0.938105	1.806252	-0.362337	-0.131026	0.047278	-38.689038	-80.795856	166.278958			
62872	1586665	9.661894	-0.916233	1.838226	-0.359832	-0.135094	0.048633	-38.849492	-80.807396	166.389291			
62873	1586690	9.677117	-0.862590	1.842415	-0.345877	-0.135291	0.041331	-39.003363	-80.819566	166.494977			
62874	1586715	9.704816	-0.834939	1.795986	-0.334945	-0.134602	0.033060	-39.150330	-80.832513	166.594044			
62875	1586740	9.742065	-0.830721	1.770811	-0.332968	-0.133276	0.036241	-39.298401	-80.844833	166.695721			
62876	1586765	9.801335	-0.932228	1.696081	-0.334476	-0.128709	0.034012	-39.442909	-80.856808	166.793567			
62877	1586790	9.833145	-0.970443	1.618894	-0.338200	-0.124106	0.025870	-39.580061	-80.868979	166.883418			
62878	1586815	9.842940	-0.920767	1.585846	-0.337414	-0.116767	0.013453	-39.705082	-80.881590	166.959936			
62879	1586840	9.882957	-0.922062	1.552674	-0.329450	-0.110872	0.011106	-39.823865	-80.893593	167.032447			
62880	1586865	9.893983	-0.928913	1.547347	-0.322089	-0.097641	0.004373	-39.929628	-80.904737	167.092837			
62881	1586890	9.944975	-0.920662	1.539392	-0.310262	-0.094461	0.008272	-40.034742	-80.915156	167.154283			
62882	1586915	9.965581	-0.996224	1.515243	-0.290810	-0.089335	0.006771	-40.133646	-80.925281	167.211142			
62883	1586940	9.993221	-0.991962	1.479373	-0.274421	-0.080781	0.003982	-40.223125	-80.934566	167.261951			
62884	1586965	10.011029	-1.063439	1.473874	-0.256841	-0.083248	-0.000945	-40.308284	-80.944564	167.310934			
62885	1586990	9.997131	-1.118560	1.494914	-0.247094	-0.088327	-0.002505	-40.394084	-80.955250	167.361979			
62886	1587015	9.970967	-1.141858	1.477546	-0.237036	-0.093834	-0.006478	-40.479477	-80.967038	167.412972			
62887	1587040	9.958708	-1.134805	1.432359	-0.221072	-0.097387	-0.015661	-40.558170	-80.979912	167.460591			
62888	1587065	9.931100	-1.213139	1.405509	-0.212944	-0.108269	-0.024398	-40.636288	-80.994773	167.508805			
62889	1587090	9.940857	-1.169024	1.385725	-0.205646	-0.113891	-0.024021	-40.717146	-81.010199	167.560849			
62890	1587115	9.865079	-1.112772	1.432377	-0.200620	-0.117086	-0.031517	-40.794633	-81.026804	167.609123			
62891	1587140	9.837536	-1.077114	1.449765	-0.201568	-0.125663	-0.032787	-40.876337	-81.044304	167.662611			
62892	1587165	9.881699	-1.065986	1.420603	-0.198931	-0.134136	-0.031173	-40.964094	-81.062558	167.722606			
62893	1587190	9.847339	-1.059026	1.394021	-0.208814	-0.141282	-0.031503	-41.057627	-81.081600	167.787010			
62894	1587215	9.814302	-1.068614	1.382001	-0.218596	-0.142680	-0.023659	-41.159520	-81.100178	167.857393			
62895	1587240	9.819839	-1.101489	1.352667	-0.234284	-0.146143	-0.017634	-41.269889	-81.118399	167.935140			
62896	1587265	9.806064	-1.089142	1.359364	-0.243448	-0.149751	-0.016436	-41.384974	-81.136872	168.016327			
62897	1587290	9.808713	-1.145552	1.371111	-0.255324	-0.144096	-0.023188	-41.494065	-81.155353	168.089723			
62898	1587315	9.815609	-1.089269	1.396559	-0.266047	-0.147435	-0.025295	-41.606047	-81.174509	168.163437			
62899	1587340	9.847248	-1.094840	1.411186	-0.269018	-0.149842	-0.020377	-41.723350	-81.193292	168.243151			
62900	1587365	9.844603	-1.053484	1.392702	-0.265196	-0.153480	-0.019962	-41.843060	-81.212399	168.325850			
62901	1587390	9.834944	-1.030189	1.412731	-0.268152	-0.152346	-0.021063	-41.962169	-81.231464	168.407508			
62902	1587415	9.851366	-1.096224	1.413851	-0.258748	-0.150895	-0.013514	-42.085055	-81.249762	168.493320			
62903	1587440	9.858246	-1.114065	1.407141	-0.255005	-0.152503	-0.017980	-42.205382	-81.268495	168.578107			
62904	1587465	9.812872	-1.054939	1.412646	-0.250478	-0.148667	-0.025235	-42.318070	-81.287493	168.655819			
62905	1587490	9.792249	-1.053502	1.398017	-0.239922	-0.145401	-0.027816	-42.425811	-81.306373	168.730051			
62906	1587515	9.775705	-1.115290	1.363262	-0.243220	-0.137433	-0.024875	-42.531778	-81.324240	168.801003			
62907	1587540	9.785360	-1.164668	1.331214	-0.239465	-0.130570	-0.018577	-42.637179	-81.340618	168.872927			
62908	1587565	9.768740	-1.159331	1.372396	-0.238733	-0.121127	-0.019149	-42.736377	-81.356038	168.938680			
62909	1587590	9.748077	-1.157957	1.376354	-0.228103	-0.113884	-0.020531	-42.828742	-81.370814	168.999058			
62910	1587615	9.693052	-1.159177	1.348463	-0.216821	-0.107129	-0.028370	-42.910352	-81.385764	169.049202			
62911	1587640	9.669704	-1.144002	1.327213	-0.206560	-0.099647	-0.034948	-42.980951	-81.400429	169.090684			
62912	1587665	9.633699	-1.215653	1.362837	-0.203472	-0.094512	-0.028974	-43.052117	-81.413964	169.133183			
62915	1587690	9.615661	-1.306432	1.366517	-0.189213	-0.089592	-0.027473	-43.119263	-81.426830	169.173682			
62916	1587715	9.612903	-1.380544	1.325040	-0.184332	-0.083749	-0.025034	-43.184141	-81.438970	169.211611			
62917	1587740	9.610227	-1.447707	1.247772	-0.188285	-0.080104	-0.025010	-43.246987	-81.450591	169.247893			
62918	1587765	9.568952	-1.480558	1.217067	-0.184454	-0.071640	-0.014277	-43.311334	-81.460268	169.286247			
62919	1587790	9.559362	-1.506548	1.182430	-0.185823	-0.066081	-0.014102	-43.372468	-81.469344	169.321153			
62920	1587815	9.551070	-1.527181	1.178368	-0.174780	-0.064255	-0.014843	-43.430807	-81.478424	169.353825			
62921	1587840	9.566156	-1.556084	1.183597	-0.154802	-0.054759	-0.006455	-43.485553	-81.485558	169.386762			
62922	1587865	9.555187	-1.558745	1.168941	-0.150068	-0.060947	-0.001411	-43.547277	-81.492832	169.427441			
62923	1587890	9.526405	-1.491267	1.150557	-0.129779	-0.060046	-0.003088	-43.604421	-81.500172	169.466428			
62924	1587915	9.527879	-1.437609	1.142757	-0.113146	-0.061119	0.002809	-43.664483	-81.507160	169.509736			
62925	1587940	9.518393	-1.344053	1.131108	-0.103070	-0.063874	-0.000910	-43.722018	-81.514669	169.552984			
62926	1587965	9.524071	-1.298502	1.092714	-0.093529	-0.067353	-0.001974	-43.779849	-81.522637	169.597912			
62927	1587990	9.521546	-1.256973	1.023771	-0.092632	-0.062783	0.000565	-43.836365	-81.529875	169.641639			
62928	1588015	9.507888	-1.228004	0.991968	-0.098412	-0.058226	-0.002843	-43.888819	-81.537097	169.679368			
62929	1588040	9.513422	-1.238930	0.978645	-0.104204	-0.052401	0.001796	-43.941075	-81.543129	169.717111			
62930	1588065	9.492805	-1.237527	0.962677	-0.108153	-0.051473	0.003853	-43.994767	-81.548855	169.755733			
62931	1588090	9.476383	-1.240082	0.921450	-0.122544	-0.053562	0.007859	-44.054762	-81.554393	169.798643			
62932	1588115	9.484666	-1.249669	0.902831	-0.128688	-0.049436	0.005715	-44.111891	-81.559834	169.836687			
62933	1588140	9.444777	-1.255049	0.882874	-0.138994	-0.045830	0.006832	-44.168460	-81.564666	169.873750			
62934	1588165	9.473776	-1.205544	0.880372	-0.138298	-0.044386	0.009182	-44.225638	-81.569110	169.911529			
62935	1588190	9.519378	-1.210802	0.813934	-0.142677	-0.042693	0.014786	-44.286230	-81.572815	169.952125			
62936	1588215	9.501551	-1.166767	0.807454	-0.143658	-0.040424	0.008886	-44.341852	-81.576992	169.986445			
62937	1588240	9.497404	-1.144835	0.827447	-0.137700	-0.040887	0.004309	-44.393352	-81.581549	170.018569			
62938	1588265	9.513916	-1.154446	0.826071	-0.148050	-0.045371	0.006638	-44.451030	-81.586327	170.055440			
62939	1588290	9.497479	-1.147465	0.792880	-0.156003	-0.039329	0.012398	-44.509777	-81.589904	170.092240			
62940	1588315	9.450670	-1.130953	0.794236	-0.162302	-0.044803	0.017355	-44.577093	-81.593656	170.135651			
62941	1588340	9.464435	-1.091165	0.822291	-0.164327	-0.048341	0.011450	-44.642604	-81.598235	170.178083			
62942	1588365	9.497592	-1.060843	0.799804	-0.163744	-0.054076	0.016275	-44.715333	-81.602905	170.227894			
62943	1588390	9.514167	-1.045666	0.795880	-0.160171	-0.055847	0.013456	-44.786885	-81.608030	170.277032			
62944	1588415	9.548665	-1.022254	0.776043	-0.149602	-0.059184	0.021212	-44.865117	-81.612822	170.333292			
62945	1588440	9.566668	-1.012488	0.744200	-0.148343	-0.061002	0.023505	-44.945579	-81.617434	170.393149			
62946	1588465	9.533710	-1.010965	0.701665	-0.159787	-0.057635	0.025626	-45.026899	-81.621479	170.452214			
62947	1588490	9.548872	-1.013702	0.697680	-0.167258	-0.055474	0.020239	-45.104168	-81.625839	170.506102			
62948	1588515	9.544670	-1.028888	0.718872	-0.176606	-0.056024	0.021054	-45.184290	-81.630282	170.560337			
62949	1588540	9.553045	-1.006789	0.685746	-0.183947	-0.056915	0.024797	-45.268211	-81.634302	170.618531			
62950	1588565	9.594409	-0.953178	0.696570	-0.193265	-0.060321	0.030556	-45.359841	-81.638065	170.683168			
62951	1588590	9.588880	-0.950472	0.712509	-0.190994	-0.065003	0.033429	-45.456433	-81.641991	170.753148			
62952	1588615	9.557035	-0.961728	0.768285	-0.184101	-0.071876	0.035641	-45.558931	-81.646485	170.828892			
62953	1588640	9.581702	-0.939941	0.830796	-0.177208	-0.080404	0.041850	-45.670205	-81.651055	170.915705			
62954	1588665	9.595600	-0.888971	0.815053	-0.170715	-0.095432	0.041409	-45.790873	-81.657148	171.012952			
62955	1588690	9.605276	-0.877964	0.809762	-0.167868	-0.102082	0.040928	-45.915632	-81.663923	171.114745			
62956	1588715	9.606765	-0.832494	0.791321	-0.173910	-0.108723	0.036453	-46.043608	-81.671910	171.217705			
62957	1588740	9.587540	-0.829657	0.764765	-0.185192	-0.109652	0.041622	-46.177052	-81.679298	171.325764			
62958	1588765	9.544918	-0.839184	0.732791	-0.205326	-0.109845	0.047985	-46.318042	-81.686011	171.438532			
62959	1588790	9.533939	-0.807499	0.732881	-0.228077	-0.113755	0.053385	-46.468926	-81.692507	171.558003			
62960	1588815	9.480202	-0.754008	0.774228	-0.241907	-0.115082	0.049411	-46.620806	-81.699626	171.675270			
62961	1588840	9.509147	-0.719655	0.784989	-0.250089	-0.119831	0.051065	-46.778061	-81.706869	171.797989			
62962	1588865	9.543462	-0.769262	0.804792	-0.254199	-0.121541	0.051349	-46.937569	-81.714201	171.922387			
62963	1588890	9.524146	-0.743253	0.832730	-0.260554	-0.129446	0.051877	-47.104290	-81.722198	172.053153			
62964	1588915	9.521412	-0.696529	0.852854	-0.270745	-0.138906	0.054906	-47.282173	-81.730865	172.192525			
62965	1588940	9.502209	-0.640154	0.851685	-0.276080	-0.143030	0.056008	-47.464339	-81.739629	172.336646			
62966	1588965	9.485612	-0.671798	0.858260	-0.278185	-0.149195	0.065817	-47.658179	-81.747884	172.492254			
62967	1588990	9.453843	-0.715881	0.875351	-0.279151	-0.153656	0.070371	-47.858796	-81.756009	172.654567			
62968	1589015	9.463488	-0.744702	0.855311	-0.283942	-0.158374	0.074710	-48.067341	-81.764166	172.823021			
62969	1589040	9.466154	-0.762682	0.880490	-0.280900	-0.163905	0.076452	-48.280513	-81.772451	172.997760			
62970	1589065	9.497762	-0.792961	0.889737	-0.272021	-0.167505	0.079755	-48.497645	-81.780631	173.177781			
62971	1589090	9.598346	-0.794280	0.873840	-0.275165	-0.181879	0.078796	-48.725711	-81.790176	173.368391			
62972	1589115	9.585938	-0.775056	0.885845	-0.278598	-0.184833	0.073639	-48.954146	-81.800570	173.557719			
62973	1589140	9.556924	-0.809541	0.905632	-0.287183	-0.189815	0.072750	-49.186962	-81.811295	173.751379			
62974	1589165	9.555461	-0.816542	0.933558	-0.289467	-0.193371	0.073999	-49.424162	-81.822103	173.949132			
62975	1589190	9.530609	-0.830347	0.952070	-0.287266	-0.201240	0.077382	-49.669789	-81.833155	174.155711			
62976	1589215	9.600880	-0.879728	0.913428	-0.285536	-0.202414	0.083989	-49.921479	-81.843589	174.367530			
62977	1589240	9.605046	-0.896148	0.888133	-0.279164	-0.207305	0.082205	-50.174903	-81.854412	174.583148			
62978	1589265	9.588557	-0.868585	0.889542	-0.278908	-0.206834	0.075746	-50.424420	-81.865770	174.794849			
62979	1589290	9.580289	-0.865893	0.889534	-0.271261	-0.206418	0.070167	-50.669608	-81.877577	175.003279			
62980	1589315	9.565080	-0.864573	0.917470	-0.264236	-0.200990	0.074966	-50.913814	-81.888357	175.210614			
62981	1589340	9.560997	-0.863141	0.901501	-0.256735	-0.201422	0.072493	-51.155754	-81.899204	175.417853			
62982	1589365	9.585779	-0.875514	0.893513	-0.257072	-0.197093	0.071473	-51.394292	-81.909654	175.621600			
62983	1589390	9.559586	-0.853578	0.916146	-0.255287	-0.201789	0.069590	-51.635674	-81.920614	175.828475			
62984	1589415	9.534796	-0.827502	0.926865	-0.257342	-0.203139	0.064886	-51.876657	-81.932222	176.033555			
62985	1589440	9.533305	-0.837294	0.971983	-0.247170	-0.200556	0.067562	-52.115855	-81.943057	176.239385			
62986	1589465	9.512647	-0.831792	0.977330	-0.240259	-0.203212	0.065780	-52.355683	-81.954206	176.446846			
62987	1589490	9.471354	-0.790566	0.988077	-0.231215	-0.201306	0.061917	-52.590914	-81.965507	176.650967			
62988	1589515	9.457586	-0.771340	0.997420	-0.222960	-0.203556	0.061858	-52.827923	-81.977014	176.857021			
62989	1589540	9.467282	-0.745167	0.989516	-0.216906	-0.206448	0.048988	-53.058608	-81.990002	177.058610			
62990	1589565	9.471413	-0.706756	1.014923	-0.218247	-0.203346	0.047068	-53.286479	-82.002832	177.257155			
62991	1589590	9.469921	-0.753612	1.036033	-0.218183	-0.210026	0.048663	-53.521473	-82.015937	177.462898			
62992	1589615	9.447783	-0.735905	1.083891	-0.218783	-0.204147	0.048777	-53.753049	-82.028533	177.664095			
62993	1589640	9.402183	-0.703204	1.163715	-0.229354	-0.207578	0.049204	-53.989363	-82.041135	177.869541			
62994	1589665	9.431028	-0.684101	1.208980	-0.230984	-0.208658	0.049256	-54.227537	-82.053703	178.076622			
62995	1589690	9.473629	-0.643111	1.270262	-0.240989	-0.212386	0.062802	-54.479056	-82.064884	178.295726			
62996	1589715	9.505109	-0.654396	1.347296	-0.247158	-0.221880	0.059469	-54.738646	-82.077226	178.521158			
62997	1589740	9.529856	-0.686015	1.344571	-0.252855	-0.229210	0.063929	-55.008094	-82.089385	178.756634			
62998	1589765	9.577913	-0.709607	1.389711	-0.263761	-0.235507	0.064422	-55.285508	-82.101848	178.998569			
62999	1589790	9.598507	-0.689104	1.424316	-0.271684	-0.238606	0.069621	-55.570557	-82.113785	179.247058			
63000	1589815	9.642524	-0.657643	1.468327	-0.272603	-0.248250	0.069310	-55.865130	-82.126483	179.504195			
63001	1589840	9.705851	-0.689205	1.462936	-0.269263	-0.253139	0.063197	-56.160276	-82.139999	179.763212			
63002	1589865	9.731932	-0.656423	1.513515	-0.272907	-0.260064	0.061654	-56.462002	-82.154063	-179.971665			
63003	1589890	9.690525	-0.667499	1.539998	-0.270312	-0.265938	0.062628	-56.770036	-82.168282	-179.699806			
63004	1589915	9.709753	-0.681294	1.551943	-0.274946	-0.267160	0.061643	-57.080763	-82.182630	-179.426627			
63005	1589940	9.730304	-0.732228	1.562427	-0.273423	-0.268695	0.065520	-57.395396	-82.196310	-179.148577			
63006	1589965	9.727388	-0.805240	1.587444	-0.279285	-0.264730	0.073388	-57.712794	-82.208526	-178.868592			
63007	1589990	9.767191	-0.880911	1.599155	-0.288880	-0.260194	0.084652	-58.034717	-82.218818	-178.585435			
63008	1590015	9.822000	-1.014482	1.633324	-0.289635	-0.249609	0.091481	-58.352284	-82.227380	-178.307400			
63009	1590040	9.882381	-1.117752	1.658257	-0.299816	-0.239520	0.098048	-58.666054	-82.234062	-178.034064			
63010	1590065	9.889019	-1.229282	1.696441	-0.302365	-0.229287	0.103024	-58.974169	-82.239175	-177.766808			
63011	1590090	9.946733	-1.287128	1.714877	-0.300416	-0.214008	0.107908	-59.271191	-82.242374	-177.510468			
63012	1590115	10.000388	-1.317429	1.724108	-0.294855	-0.202343	0.110735	-59.558973	-82.244308	-177.263171			
63013	1590140	10.048268	-1.379676	1.816957	-0.284882	-0.191623	0.098516	-59.828835	-82.246705	-177.031999			
63014	1590165	10.105900	-1.441761	1.869951	-0.269605	-0.185838	0.093691	-60.088849	-82.249142	-176.808558			
63017	1590190	10.151266	-1.462476	1.891167	-0.253311	-0.179532	0.089827	-60.338895	-82.251475	-176.592823			
63018	1590215	10.113859	-1.536910	1.934722	-0.231287	-0.169727	0.077696	-60.571014	-82.254611	-176.392424			
63019	1590240	10.137082	-1.533119	2.017159	-0.213881	-0.168927	0.072958	-60.797273	-82.258069	-176.194998			
63020	1590265	10.114957	-1.551075	2.039657	-0.209211	-0.166118	0.073372	-61.020671	-82.261176	-175.999787			
63021	1590290	10.029559	-1.475615	2.089021	-0.212771	-0.162400	0.065987	-61.237559	-82.264850	-175.811660			
63022	1590315	9.967721	-1.436963	2.051906	-0.209728	-0.164159	0.068481	-61.457400	-82.268335	-175.620431			
63023	1590340	9.914033	-1.412232	2.061251	-0.231490	-0.157754	0.076029	-61.678058	-82.270234	-175.431209			
63024	1590365	9.882339	-1.463014	2.033157	-0.225653	-0.158605	0.079496	-61.900494	-82.271654	-175.239349			
63025	1590390	9.783200	-1.510985	1.994421	-0.218447	-0.149360	0.091514	-62.119282	-82.270833	-175.050130			
63026	1590415	9.655264	-1.513447	1.927925	-0.194375	-0.139892	0.095113	-62.327751	-82.268924	-174.868050			
63027	1590440	9.660827	-1.553159	1.889229	-0.167793	-0.125073	0.097398	-62.519300	-82.265562	-174.698995			
63028	1590465	9.669220	-1.554368	1.833441	-0.153537	-0.107835	0.094013	-62.690867	-82.261422	-174.548044			
63029	1590490	9.655501	-1.513046	1.833575	-0.131628	-0.092597	0.086129	-62.841048	-82.257231	-174.415507			
63030	1590515	9.605818	-1.513254	1.876030	-0.113863	-0.079593	0.073969	-62.970726	-82.253788	-174.301205			
63031	1590540	9.585182	-1.496706	1.873436	-0.089911	-0.066347	0.077757	-63.086028	-82.248878	-174.197835			
63032	1590565	9.539996	-1.398866	1.827226	-0.074115	-0.059807	0.068688	-63.188488	-82.244677	-174.105141			
63033	1590590	9.456105	-1.316299	1.824783	-0.055493	-0.045370	0.062548	-63.271718	-82.240310	-174.029162			
63034	1590615	9.410729	-1.253097	1.834253	-0.036089	-0.043544	0.062761	-63.350619	-82.235869	-173.954753			
63035	1590640	9.343227	-1.242133	1.842228	-0.034684	-0.035940	0.063269	-63.422176	-82.230777	-173.887545			
63036	1590665	9.274374	-1.236612	1.840871	-0.028339	-0.036405	0.066927	-63.494883	-82.225234	-173.818258			
63037	1590690	9.155999	-1.221339	1.820923	-0.021623	-0.030872	0.066400	-63.561088	-82.219394	-173.754563			
63038	1590715	9.089813	-1.272264	1.823374	-0.025220	-0.019358	0.063381	-63.615593	-82.213281	-173.703088			
63039	1590740	9.012599	-1.313532	1.833839	-0.033765	-0.021425	0.065655	-63.674140	-82.206918	-173.648875			
63040	1590765	8.888550	-1.305381	1.874961	-0.033662	-0.020157	0.057602	-63.727662	-82.201502	-173.599717			
63041	1590790	8.845692	-1.352336	1.915966	-0.037207	-0.018722	0.055227	-63.779179	-82.196294	-173.553095			
63042	1590815	8.793258	-1.374419	1.943772	-0.041033	-0.024027	0.058873	-63.837864	-82.191024	-173.499575			
63043	1590840	8.718865	-1.366187	1.953077	-0.036089	-0.027196	0.057073	-63.897876	-82.186101	-173.444216			
63044	1590865	8.658155	-1.421243	1.966128	-0.026405	-0.032832	0.061205	-63.963602	-82.180992	-173.381688			
63045	1590890	8.684199	-1.474946	1.984589	-0.022653	-0.034693	0.056802	-64.028442	-82.176558	-173.319512			
63046	1590915	8.671666	-1.545153	1.993640	-0.016300	-0.042599	0.054389	-64.098583	-82.172992	-173.250739			
63047	1590940	8.659327	-1.546430	1.975023	-0.006777	-0.043970	0.040843	-64.162461	-82.171175	-173.187236			
63048	1590965	8.668984	-1.551880	1.965706	0.004959	-0.056583	0.040311	-64.236219	-82.170201	-173.112065			
63049	1590990	8.664954	-1.532522	1.939192	0.014639	-0.061743	0.037669	-64.312223	-82.169877	-173.033227			
63050	1591015	8.642994	-1.542026	1.901935	0.024509	-0.067949	0.025839	-64.387222	-82.171518	-172.953547			
63051	1591040	8.615535	-1.546012	1.863373	0.035796	-0.068332	0.027002	-64.461606	-82.172950	-172.873286			
63052	1591065	8.574381	-1.514165	1.812958	0.043470	-0.063914	0.024590	-64.529680	-82.174409	-172.798283			
63053	1591090	8.588261	-1.485191	1.786504	0.045267	-0.069693	0.022580	-64.602067	-82.176470	-172.718669			
63054	1591115	8.552650	-1.450575	1.726773	0.053528	-0.069065	0.014725	-64.669076	-82.179560	-172.642770			
63055	1591140	8.503190	-1.402328	1.706981	0.053006	-0.067706	0.016046	-64.735660	-82.182320	-172.567895			
63056	1591165	8.503275	-1.376151	1.687151	0.064905	-0.065492	0.011705	-64.796569	-82.185496	-172.497027			
63057	1591190	8.436022	-1.297543	1.638187	0.068265	-0.066376	0.000639	-64.852977	-82.190151	-172.430219			
63058	1591215	8.361770	-1.268513	1.605027	0.076558	-0.064780	0.005707	-64.908815	-82.194101	-172.362179			
63059	1591240	8.240814	-1.167908	1.566757	0.078104	-0.069438	-0.001635	-64.965848	-82.199219	-172.293318			
63060	1591265	8.224464	-1.100428	1.531067	0.079460	-0.063774	-0.002451	-65.017038	-82.204091	-172.230160			
63061	1591290	8.170857	-1.072797	1.508542	0.085346	-0.064646	-0.008488	-65.065619	-82.209791	-172.168784			
63062	1591315	8.081413	-1.041110	1.493977	0.084890	-0.067106	-0.014260	-65.113900	-82.216441	-172.107077			
63063	1591340	7.972708	-0.994252	1.476800	0.095373	-0.065148	-0.006391	-65.162613	-82.221885	-172.044120			
63064	1591365	7.887424	-0.941930	1.466297	0.102185	-0.069730	-0.008428	-65.213899	-82.227863	-171.977583			
63065	1591390	7.778730	-0.918424	1.434400	0.103401	-0.069594	-0.007346	-65.265447	-82.233683	-171.910607			
63066	1591415	7.690560	-0.933516	1.436953	0.101560	-0.073944	-0.007682	-65.321063	-82.239855	-171.838993			
63067	1591440	7.587365	-0.905916	1.410423	0.106590	-0.075804	-0.011319	-65.376536	-82.246546	-171.767598			
63068	1591465	7.526794	-0.878403	1.413143	0.112145	-0.077637	-0.013430	-65.432152	-82.253612	-171.695254			
63069	1591490	7.449682	-0.871515	1.414441	0.106336	-0.080441	-0.013162	-65.491525	-82.260801	-171.619961			
63070	1591515	7.367037	-0.868749	1.415728	0.108391	-0.081603	-0.013529	-65.551341	-82.268150	-171.543029			
63071	1591540	7.237512	-0.864705	1.440916	0.102204	-0.088236	-0.012945	-65.619151	-82.275749	-171.459822			
63072	1591565	7.146532	-0.889505	1.458044	0.097202	-0.092086	-0.010070	-65.692785	-82.283187	-171.371461			
63073	1591590	7.068036	-0.855172	1.478070	0.097544	-0.098190	-0.011964	-65.771594	-82.291216	-171.277830			
63074	1591615	6.961924	-0.842871	1.505932	0.094280	-0.100878	-0.012250	-65.853127	-82.299475	-171.180928			
63075	1591640	6.876621	-0.775477	1.512750	0.092931	-0.108032	-0.020181	-65.938942	-82.309118	-171.080898			
63076	1591665	6.809176	-0.749324	1.507484	0.095843	-0.108735	-0.023767	-66.023707	-82.319251	-170.981510			
63077	1591690	6.730744	-0.706652	1.506256	0.094807	-0.105728	-0.027266	-66.104432	-82.329649	-170.886349			
63078	1591715	6.663226	-0.686097	1.527561	0.092417	-0.098060	-0.031099	-66.176158	-82.340139	-170.799505			
63079	1591740	6.613690	-0.618777	1.550352	0.098075	-0.087848	-0.034991	-66.236109	-82.350484	-170.724838			
63080	1591765	6.524220	-0.548710	1.570452	0.106487	-0.081979	-0.038481	-66.287799	-82.360938	-170.657292			
63081	1591790	6.405706	-0.548761	1.595643	0.117648	-0.075966	-0.032578	-66.334695	-82.370265	-170.592972			
63082	1591815	6.306485	-0.551580	1.616822	0.124498	-0.065528	-0.037856	-66.367710	-82.379729	-170.540425			
63083	1591840	6.238932	-0.543436	1.646038	0.128183	-0.060602	-0.036886	-66.396410	-82.388729	-170.492942			
63084	1591865	6.190820	-0.526791	1.619517	0.133874	-0.053892	-0.035961	-66.418182	-82.397219	-170.451627			
63085	1591890	6.130233	-0.528140	1.612816	0.146551	-0.039364	-0.036764	-66.423558	-82.404982	-170.425024			
63086	1591915	6.106806	-0.537781	1.612762	0.150631	-0.040169	-0.030778	-66.431139	-82.412055	-170.394225			
63087	1591940	6.093038	-0.526797	1.618107	0.155258	-0.033531	-0.034802	-66.430421	-82.419225	-170.372512			
63088	1591965	6.061411	-0.495112	1.612905	0.168832	-0.030686	-0.035332	-66.424739	-82.426302	-170.353844			
63089	1591990	6.020193	-0.457908	1.593051	0.181986	-0.023623	-0.039607	-66.408360	-82.433535	-170.344068			
63090	1592015	6.014736	-0.446834	1.579806	0.189798	-0.018536	-0.032391	-66.388258	-82.439581	-170.335400			
63091	1592040	6.011928	-0.477132	1.584995	0.205593	-0.017896	-0.031129	-66.366480	-82.445374	-170.327658			
63092	1592065	6.016106	-0.520968	1.542346	0.212263	-0.017853	-0.039944	-66.339872	-82.452322	-170.323827			
63093	1592090	5.969345	-0.545570	1.502353	0.219159	-0.023177	-0.040396	-66.317335	-82.459635	-170.314892			
63094	1592115	5.923953	-0.568784	1.465061	0.233762	-0.019631	-0.053148	-66.282868	-82.468467	-170.314236			
63095	1592140	5.921378	-0.525965	1.409398	0.238429	-0.019845	-0.058241	-66.246435	-82.477930	-170.316533			
63096	1592165	5.881544	-0.506597	1.382832	0.242758	-0.015488	-0.064676	-66.202185	-82.487984	-170.326090			
63097	1592190	5.867950	-0.489865	1.321757	0.256447	-0.013255	-0.067675	-66.152360	-82.498301	-170.339292			
63098	1592215	5.865286	-0.463638	1.297941	0.252825	-0.010714	-0.068845	-66.099102	-82.508671	-170.354724			
63099	1592240	5.872250	-0.437447	1.279413	0.252172	-0.002679	-0.069743	-66.038254	-82.518642	-170.379661			
63100	1592265	5.850221	-0.482715	1.251361	0.254162	0.001456	-0.074290	-65.970860	-82.528962	-170.410912			
63101	1592290	5.868250	-0.455091	1.219558	0.250457	0.005659	-0.066914	-65.902955	-82.538068	-170.443212			
63102	1592315	5.844849	-0.453668	1.210260	0.247024	0.010972	-0.070494	-65.827629	-82.547373	-170.481634			
63103	1592340	5.832547	-0.409617	1.199761	0.245230	0.015844	-0.069435	-65.748902	-82.556199	-170.525603			
63104	1592365	5.793916	-0.413848	1.224972	0.243415	0.027138	-0.066040	-65.660529	-82.563907	-170.579561			
63105	1592390	5.781528	-0.416571	1.223631	0.239135	0.033185	-0.055753	-65.571244	-82.569905	-170.635056			
63106	1592415	5.796616	-0.420770	1.240885	0.232877	0.044715	-0.050046	-65.472870	-82.574511	-170.698659			
63107	1592440	5.818641	-0.390640	1.268918	0.230995	0.055809	-0.047533	-65.365663	-82.578065	-170.773401			
63108	1592465	5.887484	-0.334393	1.305031	0.225002	0.067347	-0.033645	-65.254092	-82.579104	-170.853411			
63109	1592490	5.989255	-0.315433	1.375572	0.219035	0.076626	-0.021471	-65.139714	-82.577981	-170.937113			
63110	1592515	6.111733	-0.292293	1.432876	0.211748	0.089444	-0.007658	-65.019039	-82.574316	-171.026136			
63111	1592540	6.249325	-0.310382	1.479393	0.202610	0.096779	0.002535	-64.898233	-82.568811	-171.118694			
63112	1592565	6.419879	-0.345056	1.556445	0.187354	0.106700	0.017738	-64.777026	-82.560706	-171.213862			
63113	1592590	6.583612	-0.345352	1.622991	0.178841	0.112826	0.024137	-64.654206	-82.551371	-171.311889			
63114	1592615	6.766665	-0.355164	1.668238	0.170334	0.123411	0.025465	-64.521968	-82.541232	-171.418418			
63115	1592640	6.948304	-0.393902	1.709418	0.164041	0.134613	0.033966	-64.385013	-82.529223	-171.532842			
63116	1592665	7.189171	-0.380452	1.780055	0.147612	0.149840	0.041315	-64.239338	-82.515283	-171.658439			
63119	1592690	7.426011	-0.373704	1.801466	0.127718	0.164297	0.052181	-64.088028	-82.498998	-171.792598			
63120	1592715	7.614540	-0.427491	1.838620	0.109215	0.182512	0.054626	-63.922233	-82.481250	-171.941659			
63121	1592740	7.863722	-0.462054	1.862574	0.089149	0.207004	0.057948	-63.739020	-82.461424	-172.113581			
63122	1592765	8.082623	-0.464974	1.897227	0.058401	0.237289	0.067194	-63.536317	-82.438410	-172.309616			
63123	1592790	8.291795	-0.516051	1.938405	0.037362	0.263582	0.079435	-63.318474	-82.412048	-172.523976			
63124	1592815	8.492565	-0.564614	2.036677	0.018170	0.295085	0.086044	-63.076748	-82.382735	-172.762663			
63125	1592840	8.718193	-0.657002	2.084325	-0.005767	0.319655	0.090346	-62.820304	-82.351093	-173.022231			
63126	1592865	8.898472	-0.702512	2.117529	-0.018542	0.340357	0.096823	-62.551472	-82.317108	-173.296163			
63127	1592890	9.136507	-0.759191	2.182573	-0.028647	0.361450	0.096042	-62.266360	-82.281647	-173.588009			
63128	1592915	9.340022	-0.850299	2.254161	-0.034019	0.380062	0.100301	-61.968173	-82.244239	-173.891125			
63129	1592940	9.507818	-0.924817	2.313771	-0.030442	0.397261	0.105204	-61.660275	-82.204794	-174.206278			
63130	1592965	9.666056	-0.964864	2.349631	-0.023615	0.405683	0.100438	-61.344469	-82.165142	-174.528456			
63131	1592990	9.736128	-1.018631	2.382747	-0.002377	0.414322	0.098763	-61.020179	-82.124860	-174.856159			
63132	1593015	9.807619	-1.066866	2.407835	0.011370	0.419593	0.093868	-60.688668	-82.084597	-175.186301			
63133	1593040	9.869669	-1.024257	2.402727	0.038065	0.431207	0.095150	-60.348387	-82.043059	-175.524365			
63134	1593065	9.882096	-1.051652	2.376035	0.059821	0.437799	0.097787	-60.004050	-82.000445	-175.863412			
63135	1593090	9.877926	-1.076399	2.375987	0.075389	0.445771	0.094295	-59.652352	-81.957405	-176.207676			
63136	1593115	9.886218	-1.096933	2.353304	0.096115	0.457591	0.083993	-59.284418	-81.914498	-176.562318			
63137	1593140	9.862748	-1.102522	2.373211	0.115378	0.464098	0.077298	-58.909943	-81.871589	-176.923877			
63138	1593165	9.822763	-1.099834	2.386483	0.129560	0.471568	0.074419	-58.529460	-81.828142	-177.289492			
63139	1593190	9.764938	-1.097068	2.383825	0.136524	0.481448	0.074022	-58.143401	-81.783655	-177.659772			
63140	1593215	9.686386	-1.119028	2.387694	0.155154	0.493799	0.065094	-57.742272	-81.738965	-178.039412			
63141	1593240	9.596935	-1.085952	2.377119	0.171104	0.500003	0.051020	-57.331994	-81.695099	-178.429245			
63142	1593265	9.457982	-0.945738	2.401426	0.189532	0.510600	0.036706	-56.907004	-81.651723	-178.831322			
63143	1593290	9.339497	-0.908728	2.436029	0.208321	0.522859	0.030373	-56.470299	-81.607704	-179.242566			
63144	1593315	9.170116	-0.856525	2.460018	0.219817	0.530306	0.026144	-56.026607	-81.563142	-179.655873			
63145	1593340	9.003359	-0.837435	2.513129	0.228339	0.534874	0.025630	-55.583861	-81.517800	179.929580			
63146	1593365	8.839347	-0.833451	2.560873	0.232323	0.533745	0.019635	-55.142731	-81.472787	179.517196			
63147	1593390	8.679531	-0.825265	2.587377	0.236376	0.532803	0.021686	-54.707374	-81.427147	179.111188			
63148	1593415	8.538919	-0.877606	2.608405	0.231572	0.529966	0.020249	-54.276971	-81.381449	178.713007			
63149	1593440	8.446443	-0.930040	2.658643	0.225769	0.522813	0.020012	-53.858674	-81.335944	178.322620			
63150	1593465	8.326634	-0.918979	2.657279	0.230384	0.516525	0.011051	-53.443688	-81.291581	177.936204			
63151	1593490	8.199855	-0.975329	2.651717	0.231321	0.505853	0.003205	-53.036187	-81.248616	177.557452			
63152	1593515	8.100701	-1.039790	2.611540	0.251506	0.494251	0.002608	-52.636225	-81.206302	177.192946			
63153	1593540	8.016574	-1.144243	2.589890	0.262497	0.483815	-0.005655	-52.242946	-81.165468	176.833019			
63154	1593565	7.977997	-1.271881	2.524353	0.288057	0.468715	-0.017041	-51.853935	-81.126876	176.481078			
63155	1593590	7.885830	-1.301886	2.455117	0.308593	0.460102	-0.030304	-51.463816	-81.090171	176.130957			
63156	1593615	7.790939	-1.324961	2.388505	0.333333	0.446120	-0.031628	-51.080691	-81.054472	175.795333			
63157	1593640	7.697281	-1.405936	2.337687	0.360559	0.432031	-0.047429	-50.699021	-81.021484	175.461234			
63158	1593665	7.587097	-1.493769	2.288188	0.393574	0.422789	-0.055024	-50.317307	-80.989832	175.131847			
63159	1593690	7.472767	-1.559608	2.253327	0.412852	0.409834	-0.060254	-49.941233	-80.959604	174.810939			
63160	1593715	7.387164	-1.710893	2.248777	0.428334	0.392047	-0.064558	-49.573258	-80.931122	174.504400			
63161	1593740	7.344387	-1.844139	2.207127	0.449106	0.373083	-0.070271	-49.215616	-80.904767	174.207367			
63162	1593765	7.322398	-1.892067	2.157766	0.447531	0.351918	-0.071982	-48.873323	-80.880298	173.925629			
63163	1593790	7.304546	-1.924931	2.111141	0.444087	0.335735	-0.081499	-48.538388	-80.858120	173.650826			
63164	1593815	7.332358	-1.842230	2.055625	0.441694	0.317943	-0.076050	-48.218623	-80.836744	173.395011			
63165	1593840	7.379342	-1.781585	2.026640	0.431253	0.305995	-0.069466	-47.915125	-80.815645	173.150155			
63166	1593865	7.462079	-1.733442	2.016185	0.417055	0.285642	-0.057201	-47.635516	-80.795007	172.927426			
63167	1593890	7.555778	-1.733416	1.998976	0.397816	0.271875	-0.033136	-47.383086	-80.772994	172.729427			
63168	1593915	7.666089	-1.727748	1.948540	0.367615	0.253503	-0.010546	-47.159757	-80.750187	172.560533			
63169	1593940	7.808102	-1.658933	1.926271	0.333065	0.233711	-0.001103	-46.962339	-80.728291	172.408849			
63170	1593965	7.956931	-1.664311	1.897106	0.295445	0.220183	0.020088	-46.792455	-80.705426	172.279594			
63171	1593990	8.165021	-1.649099	1.856068	0.254095	0.206512	0.036003	-46.647435	-80.682187	172.169524			
63172	1594015	8.311131	-1.550127	1.868453	0.210020	0.185344	0.046137	-46.527163	-80.659857	172.082176			
63173	1594040	8.391209	-1.392011	1.878340	0.168033	0.165389	0.056724	-46.433940	-80.638447	172.012094			
63174	1594065	8.530628	-1.233709	1.847062	0.131005	0.156924	0.066963	-46.357823	-80.616795	171.953968			
63175	1594090	8.693385	-1.115373	1.821008	0.078778	0.157407	0.068332	-46.290003	-80.594942	171.896666			
63176	1594115	8.889066	-1.004099	1.845394	0.039376	0.171930	0.069797	-46.218289	-80.571403	171.833798			
63177	1594140	9.073597	-0.921810	1.904254	-0.001164	0.181825	0.069672	-46.148148	-80.546966	171.762527			
63178	1594165	9.329674	-0.876752	1.969696	-0.033878	0.200509	0.063644	-46.067918	-80.521281	171.676273			
63179	1594190	9.556748	-0.881169	2.044172	-0.058530	0.213560	0.066173	-45.985136	-80.494017	171.583845			
63180	1594215	9.796213	-0.867772	2.122796	-0.075984	0.219463	0.069210	-45.901874	-80.465743	171.492587			
63181	1594240	10.042549	-0.920293	2.177243	-0.093164	0.217804	0.075044	-45.827725	-80.437101	171.403866			
63182	1594265	10.262741	-1.038623	2.179608	-0.093544	0.218816	0.077713	-45.755079	-80.408065	171.316609			
63183	1594290	10.502385	-1.114137	2.136966	-0.101538	0.215238	0.067970	-45.680470	-80.380367	171.226190			
63184	1594315	10.741877	-1.280467	2.100665	-0.095585	0.208990	0.060241	-45.603006	-80.353974	171.138024			
63185	1594340	10.960899	-1.392986	2.024687	-0.085872	0.193226	0.049065	-45.529163	-80.330377	171.050645			
63186	1594365	11.182767	-1.488922	1.912887	-0.065589	0.183658	0.042783	-45.454832	-80.308364	170.965712			
63187	1594390	11.425442	-1.554430	1.765295	-0.032228	0.171876	0.034705	-45.378356	-80.288341	170.883446			
63188	1594415	11.706805	-1.600521	1.580613	0.005876	0.157982	0.025973	-45.298200	-80.270492	170.807292			
63189	1594440	11.981373	-1.597120	1.381425	0.067198	0.151299	0.028123	-45.216449	-80.253174	170.734115			
63190	1594465	12.284884	-1.691079	1.115585	0.146982	0.143194	0.042452	-45.136749	-80.235203	170.674611			
63191	1594490	12.628329	-1.815271	0.844312	0.241320	0.151849	0.055368	-45.046293	-80.215030	170.617901			
63192	1594515	12.992420	-1.979266	0.554272	0.362140	0.160798	0.060447	-44.934955	-80.193324	170.561794			
63193	1594540	13.368833	-2.091250	0.317660	0.482744	0.177227	0.062229	-44.799833	-80.169844	170.494841			
63194	1594565	13.789337	-2.229274	0.064937	0.621831	0.186406	0.050858	-44.633299	-80.146547	170.416224			
63195	1594590	14.135452	-2.374120	-0.185171	0.770511	0.206433	0.035998	-44.425803	-80.122653	170.317640			
63196	1594615	14.502234	-2.484708	-0.416510	0.926635	0.224730	0.009230	-44.168960	-80.099400	170.195675			
63197	1594640	14.775453	-2.434634	-0.594184	1.082373	0.253314	-0.021093	-43.858139	-80.076208	170.037535			
63198	1594665	14.935743	-2.332307	-0.747865	1.241823	0.275432	-0.047591	-43.497464	-80.053186	169.851958			
63199	1594690	15.058760	-2.160216	-0.825629	1.415614	0.307526	-0.055370	-43.090665	-80.027369	169.644812			
63200	1594715	15.049442	-2.037608	-0.886376	1.581949	0.338075	-0.044511	-42.649876	-79.996935	169.431060			
63201	1594740	15.022008	-2.009992	-0.914276	1.741691	0.360631	-0.030799	-42.185552	-79.962583	169.212889			
63202	1594765	14.933719	-1.989637	-0.841152	1.896348	0.386444	-0.025234	-41.690900	-79.924631	168.986392			
63203	1594790	14.864517	-1.964165	-0.684341	2.038505	0.405935	-0.012481	-41.175985	-79.883031	168.759968			
63204	1594815	14.768760	-2.048949	-0.445656	2.167508	0.399192	-0.004184	-40.652926	-79.840944	168.547478			
63205	1594840	14.591879	-2.270515	-0.344205	2.290574	0.376632	-0.010940	-40.124097	-79.801681	168.343542			
63206	1594865	14.507730	-2.412088	-0.363298	2.397777	0.347072	-0.029911	-39.586171	-79.767075	168.145943			
63207	1594890	14.474394	-2.449579	-0.269131	2.489814	0.304147	-0.063558	-39.038404	-79.739950	167.951721			
63208	1594915	14.465868	-2.393707	-0.130797	2.562040	0.245659	-0.113131	-38.479388	-79.723395	167.759766			
63209	1594940	14.452103	-2.238589	-0.038535	2.614302	0.167124	-0.167957	-37.919459	-79.720276	167.571286			
63210	1594965	14.496121	-1.906749	0.176538	2.650126	0.076609	-0.197831	-37.379511	-79.729713	167.408330			
63211	1594990	14.576163	-1.673042	0.244964	2.676690	-0.033616	-0.215085	-36.876797	-79.752965	167.287089			
63212	1595015	14.697771	-1.570883	0.137745	2.664421	-0.140366	-0.214310	-36.424409	-79.788169	167.218216			
63213	1595040	14.885448	-1.475681	0.047740	2.640211	-0.254094	-0.223095	-36.022742	-79.837232	167.194358			
63214	1595065	15.140718	-1.372110	-0.080605	2.578418	-0.364917	-0.225430	-35.678518	-79.899329	167.219866			
63215	1595090	15.462194	-1.265666	-0.250178	2.503847	-0.470201	-0.214325	-35.399931	-79.972797	167.301182			
63216	1595115	15.842549	-1.132430	-0.266770	2.430322	-0.570873	-0.185147	-35.196406	-80.055621	167.450833			
63217	1595140	16.199468	-1.167834	-0.361191	2.361096	-0.680735	-0.139652	-35.086307	-80.147690	167.682385			
63218	1595165	16.578482	-1.488573	-0.649083	2.275156	-0.770041	-0.084224	-35.070336	-80.245708	167.996902			
63221	1595190	16.958660	-1.922304	-0.936006	2.135232	-0.845173	-0.033242	-35.149127	-80.348301	168.387128			
63222	1595215	17.261692	-2.174823	-1.093298	1.991920	-0.910329	0.025944	-35.325825	-80.453440	168.858283			
63223	1595240	17.530413	-2.466946	-1.320101	1.848375	-0.965882	0.070494	-35.590482	-80.561095	169.395053			
63224	1595265	17.782285	-2.899531	-1.507385	1.691744	-0.996014	0.110349	-35.930469	-80.668448	169.985267			
63225	1595290	17.882535	-3.343256	-1.648355	1.534201	-1.019917	0.144613	-36.340769	-80.775040	170.623679			
63226	1595315	17.904153	-3.776161	-1.740055	1.365274	-1.035021	0.153303	-36.801027	-80.881824	171.290122			
63227	1595340	17.830533	-4.080324	-1.670719	1.182061	-1.047044	0.149325	-37.305566	-80.989448	171.972503			
63228	1595365	17.655104	-4.201811	-1.544921	0.984720	-1.056383	0.136745	-37.848981	-81.098244	172.665419			
63229	1595390	17.390079	-4.305601	-1.371429	0.788531	-1.069053	0.132218	-38.439894	-81.207795	173.377758			
63230	1595415	17.050781	-4.344695	-1.197597	0.607406	-1.083734	0.119135	-39.071721	-81.318977	174.106634			
63231	1595440	16.741858	-4.271156	-0.998226	0.439926	-1.100846	0.110589	-39.750062	-81.431565	174.856472			
63232	1595465	16.344686	-4.219713	-0.767000	0.277728	-1.111134	0.114499	-40.479955	-81.543529	175.634722			
63233	1595490	15.897526	-4.174340	-0.376613	0.108787	-1.127854	0.118981	-41.268329	-81.655349	176.447400			
63234	1595515	15.365477	-4.019793	-0.107920	-0.061639	-1.153464	0.119028	-42.119320	-81.768191	177.299623			
63235	1595540	14.760735	-3.772834	0.093262	-0.234166	-1.163255	0.121515	-43.027676	-81.879930	178.183422			
63236	1595565	14.153506	-3.415685	0.235027	-0.397532	-1.142921	0.123662	-43.971530	-81.987298	179.079199			
63237	1595590	13.598845	-3.029425	0.305223	-0.547004	-1.090391	0.139074	-44.934645	-82.085642	179.972579			
63238	1595615	13.089328	-2.699779	0.462922	-0.668218	-1.000175	0.157037	-45.883395	-82.171001	-179.165366			
63239	1595640	12.639067	-2.367384	0.611371	-0.757513	-0.888198	0.167996	-46.787158	-82.242232	-178.362693			
63240	1595665	12.233941	-2.112233	0.832629	-0.830327	-0.759116	0.179409	-47.624070	-82.298040	-177.638130			
63241	1595690	11.886413	-1.916590	1.134743	-0.868386	-0.625073	0.175878	-48.368398	-82.340025	-177.012573			
63242	1595715	11.497567	-1.659206	1.467568	-0.879845	-0.495346	0.168251	-49.011274	-82.369548	-176.490271			
63243	1595740	11.181648	-1.427999	1.817643	-0.869209	-0.371169	0.162646	-49.552251	-82.387358	-176.070083			
63244	1595765	10.915232	-1.135138	2.230380	-0.836037	-0.253314	0.150259	-49.985246	-82.395145	-175.754057			
63245	1595790	10.716236	-0.963213	2.606888	-0.774810	-0.149846	0.143489	-50.320121	-82.393899	-175.528176			
63246	1595815	10.565362	-0.814727	2.999299	-0.691845	-0.059713	0.135003	-50.562136	-82.385214	-175.383053			
63247	1595840	10.461176	-0.714528	3.426092	-0.601097	0.016193	0.136288	-50.729227	-82.369427	-175.301338			
63248	1595865	10.428474	-0.688616	3.859355	-0.502805	0.065710	0.133346	-50.838813	-82.349456	-175.263434			
63249	1595890	10.420766	-0.672136	4.206186	-0.409190	0.098532	0.139952	-50.911973	-82.325777	-175.248753			
63250	1595915	10.488847	-0.763994	4.483589	-0.337458	0.105599	0.152116	-50.976271	-82.300093	-175.231434			
63251	1595940	10.573658	-0.884301	4.647997	-0.287458	0.097689	0.164555	-51.048543	-82.273746	-175.200051			
63252	1595965	10.607777	-1.089253	4.650019	-0.250669	0.076827	0.173035	-51.137891	-82.248324	-175.146114			
63253	1595990	10.643349	-1.427256	4.553203	-0.229444	0.054784	0.170562	-51.240136	-82.225145	-175.076090			
63254	1596015	10.608801	-1.734785	4.419305	-0.214010	0.042263	0.143954	-51.331713	-82.206023	-175.013121			
63255	1596040	10.563522	-1.973272	4.204551	-0.208427	0.038758	0.101234	-51.397920	-82.192006	-174.976426			
63256	1596065	10.390528	-2.043751	3.941125	-0.196876	0.038706	0.055446	-51.432558	-82.183116	-174.969925			
63257	1596090	10.131060	-1.966932	3.636949	-0.171214	0.049593	0.020151	-51.431668	-82.177206	-174.995576			
63258	1596115	9.870365	-1.818517	3.321033	-0.145076	0.077851	-0.007045	-51.385502	-82.171779	-175.061529			
63259	1596140	9.637073	-1.745878	3.018171	-0.105102	0.093782	-0.013216	-51.317595	-82.165644	-175.145269			
63260	1596165	9.461378	-1.762729	2.764210	-0.064811	0.130251	-0.008884	-51.217291	-82.155739	-175.255887			
63261	1596190	9.273143	-1.870437	2.516599	-0.023302	0.168325	-0.007774	-51.081277	-82.142259	-175.396555			
63262	1596215	9.124793	-1.967222	2.295580	0.021823	0.213930	-0.014879	-50.897064	-82.125358	-175.577683			
63263	1596240	8.970950	-2.037898	2.086632	0.062306	0.254132	-0.025117	-50.669903	-82.105909	-175.797999			
63264	1596265	8.804667	-2.081232	1.918945	0.103809	0.296378	-0.039279	-50.395060	-82.084047	-176.060464			
63265	1596290	8.652173	-2.083367	1.760710	0.152242	0.331523	-0.061683	-50.072313	-82.061244	-176.364305			
63266	1596315	8.429594	-2.019364	1.582714	0.207987	0.364442	-0.082628	-49.702920	-82.037388	-176.705555			
63267	1596340	8.250838	-1.970863	1.492404	0.276101	0.388166	-0.106767	-49.292367	-82.013690	-177.080178			
63268	1596365	8.085974	-1.883727	1.378311	0.354114	0.399980	-0.127967	-48.849743	-81.990790	-177.475926			
63269	1596390	7.912873	-1.796581	1.245597	0.441229	0.402035	-0.147498	-48.382345	-81.969358	-177.884111			
63270	1596415	7.754780	-1.741197	1.168583	0.522216	0.396459	-0.161695	-47.899432	-81.949438	-178.294689			
63271	1596440	7.662661	-1.731345	1.106086	0.614010	0.381053	-0.182627	-47.403619	-81.932794	-178.706617			
63272	1596465	7.485346	-1.703320	0.979860	0.696059	0.358209	-0.210035	-46.895919	-81.920749	-179.118695			
63273	1596490	7.291671	-1.621519	0.819208	0.774834	0.331873	-0.232530	-46.381946	-81.913121	-179.525722			
63274	1596515	7.132321	-1.522055	0.707816	0.836219	0.298524	-0.247289	-45.873082	-81.909745	-179.917212			
63275	1596540	6.960668	-1.427932	0.556517	0.886311	0.271443	-0.266336	-45.364197	-81.910615	179.697021			
63276	1596565	6.805388	-1.391674	0.432930	0.920695	0.240719	-0.275169	-44.865881	-81.915009	179.326908			
63277	1596590	6.661143	-1.344430	0.310770	0.920598	0.211607	-0.290288	-44.376806	-81.923443	178.966119			
63278	1596615	6.542944	-1.337202	0.213681	0.905889	0.180236	-0.291212	-43.909587	-81.934695	178.626683			
63279	1596640	6.467110	-1.322207	0.258874	0.884435	0.142477	-0.297691	-43.466624	-81.950196	178.307256			
63280	1596665	6.350385	-1.283219	0.141981	0.855769	0.090776	-0.309601	-43.053352	-81.971923	178.013681			
63281	1596690	6.287393	-1.262062	0.005149	0.814404	0.045514	-0.311346	-42.674081	-81.998289	177.748478			
63282	1596715	6.206520	-1.207931	-0.119639	0.758247	-0.002657	-0.320371	-42.326471	-82.030302	177.508416			
63283	1596740	6.107697	-1.207362	-0.257916	0.708160	-0.047414	-0.335498	-42.003604	-82.068403	177.284840			
63284	1596765	6.069617	-1.195633	-0.443913	0.637214	-0.086640	-0.349894	-41.704185	-82.111896	177.074698			
63285	1596790	6.030016	-1.167675	-0.568743	0.569829	-0.114647	-0.372894	-41.412984	-82.160428	176.863133			
63286	1596815	5.894158	-1.101020	-0.725404	0.491975	-0.139390	-0.392628	-41.130760	-82.213266	176.650517			
63287	1596840	5.763743	-1.009767	-0.844762	0.410158	-0.152718	-0.413606	-40.849978	-82.269449	176.426438			
63288	1596865	5.670516	-0.922668	-0.965438	0.320010	-0.151929	-0.435354	-40.560370	-82.327427	176.180452			
63289	1596890	5.566127	-0.878308	-1.050392	0.227055	-0.144355	-0.444143	-40.267633	-82.385227	175.917908			
63290	1596915	5.457556	-0.821635	-1.120718	0.146484	-0.136808	-0.457715	-39.965277	-82.443199	175.635005			
63291	1596940	5.368153	-0.804961	-1.159237	0.063021	-0.125557	-0.467445	-39.654950	-82.500696	175.331088			
63292	1596965	5.220971	-0.705848	-1.176275	-0.016496	-0.115731	-0.466061	-39.345670	-82.556765	175.016780			
63293	1596990	5.026948	-0.634180	-1.204037	-0.085598	-0.103897	-0.457819	-39.040448	-82.610554	174.696621			
63294	1597015	4.848013	-0.558498	-1.206543	-0.159873	-0.086056	-0.453550	-38.732198	-82.661682	174.363512			
63295	1597040	4.669021	-0.500710	-1.198498	-0.224745	-0.067283	-0.442556	-38.425796	-82.709562	174.022142			
63296	1597065	4.503731	-0.473273	-1.175902	-0.281303	-0.053616	-0.430477	-38.124462	-82.754602	173.677750			
63297	1597090	4.327437	-0.436184	-1.157279	-0.331718	-0.039317	-0.414291	-37.830909	-82.796374	173.333956			
63298	1597115	4.163530	-0.412847	-1.134714	-0.378291	-0.024717	-0.394915	-37.547374	-82.834516	172.994219			
63299	1597140	4.086436	-0.393579	-1.140005	-0.430822	-0.008646	-0.376147	-37.274382	-82.869049	172.656897			
63300	1597165	3.962395	-0.411500	-1.121537	-0.471385	0.009899	-0.360967	-37.005378	-82.899953	172.317763			
63301	1597190	3.858984	-0.483035	-1.113849	-0.511269	0.028478	-0.348191	-36.738460	-82.927434	171.974995			
63302	1597215	3.798206	-0.588956	-1.104923	-0.543559	0.045168	-0.337185	-36.472308	-82.951804	171.628879			
63303	1597240	3.742950	-0.660581	-1.078631	-0.568624	0.064707	-0.339240	-36.192583	-82.973944	171.264966			
63304	1597265	3.676755	-0.708712	-1.072168	-0.588232	0.082520	-0.332888	-35.907483	-82.993267	170.892824			
63305	1597290	3.625643	-0.728171	-1.020434	-0.597309	0.103875	-0.332031	-35.608180	-83.009803	170.505076			
63306	1597315	3.618594	-0.743491	-0.966031	-0.600439	0.128759	-0.321874	-35.300414	-83.022292	170.108735			
63307	1597340	3.612941	-0.738230	-0.906205	-0.597867	0.142334	-0.315402	-34.988320	-83.032445	169.708042			
63308	1597365	3.655469	-0.738507	-0.837092	-0.597282	0.160314	-0.301661	-34.676396	-83.039096	169.307612			
63309	1597390	3.662115	-0.737479	-0.740064	-0.591011	0.169891	-0.281030	-34.376569	-83.042682	168.920278			
63310	1597415	3.754167	-0.754350	-0.656368	-0.594752	0.182919	-0.261933	-34.086846	-83.042899	168.542826			
63311	1597440	3.817121	-0.809839	-0.528930	-0.599533	0.186423	-0.234918	-33.821979	-83.040363	168.189482			
63312	1597465	3.955842	-0.865326	-0.409440	-0.599556	0.190812	-0.208305	-33.580524	-83.034999	167.859718			
63313	1597490	4.108353	-0.911231	-0.280624	-0.615573	0.186633	-0.184029	-33.368263	-83.028059	167.557050			
63314	1597515	4.270357	-1.057526	-0.162737	-0.630242	0.175527	-0.157513	-33.191665	-83.020196	167.288317			
63315	1597540	4.360800	-1.243481	-0.086224	-0.648442	0.162010	-0.137563	-33.046372	-83.012346	167.048364			
63316	1597565	4.438973	-1.338702	-0.005444	-0.670405	0.143921	-0.128149	-32.925349	-83.005866	166.829690			
63317	1597590	4.504716	-1.376327	0.123348	-0.698206	0.121677	-0.132079	-32.818811	-83.002316	166.621594			
63318	1597615	4.549847	-1.387801	0.242927	-0.753667	0.106685	-0.123763	-32.738014	-82.999841	166.431438			
63319	1597640	4.630972	-1.350980	0.320161	-0.816816	0.082918	-0.129938	-32.675198	-83.000724	166.250274			
63320	1597665	4.709386	-1.268791	0.402851	-0.917636	0.069299	-0.119248	-32.645861	-83.002404	166.088291			
63323	1597690	4.807108	-1.203043	0.468248	-1.022694	0.052646	-0.111571	-32.649546	-83.005496	165.944418			
63324	1597715	4.896791	-1.058745	0.495349	-1.123451	0.036305	-0.099230	-32.690120	-83.009565	165.823100			
63325	1597740	4.985285	-0.864749	0.470779	-1.203639	0.020020	-0.094014	-32.757457	-83.015252	165.717245			
63326	1597765	5.097190	-0.694061	0.428930	-1.275364	0.012298	-0.080249	-32.853475	-83.020819	165.629935			
63327	1597790	5.264182	-0.568695	0.369628	-1.318980	0.004125	-0.071767	-32.969287	-83.026728	165.556274			
63328	1597815	5.424131	-0.444924	0.366182	-1.347550	-0.000168	-0.056025	-33.107542	-83.031899	165.501000			
63329	1597840	5.571639	-0.370645	0.353210	-1.351901	-0.005227	-0.045648	-33.259816	-83.036923	165.459324			
63330	1597865	5.721791	-0.365104	0.341395	-1.329156	-0.010543	-0.033364	-33.424385	-83.041631	165.433316			
63331	1597890	5.946423	-0.363566	0.288374	-1.289122	-0.004567	-0.024673	-33.587950	-83.044947	165.412074			
63332	1597915	6.150222	-0.418594	0.275026	-1.226464	-0.010641	-0.016563	-33.754592	-83.048308	165.402854			
63333	1597940	6.385743	-0.474885	0.240470	-1.149524	-0.006245	-0.015385	-33.908459	-83.051098	165.391986			
63334	1597965	6.604697	-0.632791	0.165652	-1.067132	0.007518	-0.027025	-34.030190	-83.053187	165.360635			
63335	1597990	6.800201	-0.763327	0.116190	-0.966551	0.020528	-0.036941	-34.119309	-83.054535	165.310944			
63336	1598015	6.926806	-0.892497	0.082612	-0.870829	0.042698	-0.052989	-34.164604	-83.054513	165.230744			
63337	1598040	7.035455	-1.042358	0.058279	-0.758702	0.063322	-0.060736	-34.172569	-83.052713	165.129291			
63338	1598065	7.097276	-1.185329	0.041897	-0.637634	0.091840	-0.072792	-34.132700	-83.048500	164.997120			
63339	1598090	7.141076	-1.290060	0.088091	-0.501891	0.122903	-0.084861	-34.041355	-83.041551	164.832677			
63340	1598115	7.213803	-1.433203	0.110247	-0.368272	0.155368	-0.089154	-33.905918	-83.031014	164.642820			
63341	1598140	7.274107	-1.570900	0.152341	-0.223538	0.179149	-0.092275	-33.731595	-83.017870	164.434942			
63342	1598165	7.374364	-1.681159	0.199850	-0.088812	0.198896	-0.096987	-33.521398	-83.002660	164.210357			
63343	1598190	7.463681	-1.763846	0.231534	0.042711	0.218613	-0.095649	-33.282030	-82.984879	163.975354			
63344	1598215	7.536390	-1.841156	0.303062	0.164719	0.234623	-0.083482	-33.028366	-82.964066	163.743150			
63345	1598240	7.651796	-1.870416	0.400035	0.271907	0.241239	-0.072688	-32.766911	-82.941527	163.518952			
63346	1598265	7.747939	-1.920263	0.475643	0.355437	0.240286	-0.057895	-32.510030	-82.917835	163.311409			
63347	1598290	7.849692	-1.928786	0.544777	0.429846	0.235957	-0.043426	-32.260770	-82.893445	163.122274			
63348	1598315	7.961076	-1.975771	0.587183	0.484742	0.227019	-0.018714	-32.034890	-82.868121	162.964101			
63349	1598340	8.094408	-2.015983	0.669517	0.514142	0.211400	0.005165	-31.838383	-82.842852	162.840282			
63350	1598365	8.212663	-2.045126	0.729233	0.514731	0.189367	0.036991	-31.686859	-82.817819	162.761876			
63351	1598390	8.315701	-2.112805	0.800828	0.509806	0.157022	0.066635	-31.584639	-82.794483	162.732452			
63352	1598415	8.363599	-2.155827	0.888412	0.484970	0.129175	0.092883	-31.528496	-82.772533	162.745260			
63353	1598440	8.366009	-2.226325	0.993139	0.450637	0.095636	0.121465	-31.524201	-82.752578	162.806001			
63354	1598465	8.313318	-2.270778	1.116540	0.401898	0.054516	0.134416	-31.563310	-82.736670	162.903461			
63355	1598490	8.191773	-2.324770	1.225258	0.350475	0.009476	0.145891	-31.646951	-82.725381	163.038390			
63356	1598515	8.083983	-2.371967	1.341958	0.278091	-0.046024	0.144091	-31.772095	-82.720917	163.203990			
63357	1598540	7.920223	-2.308586	1.323478	0.208105	-0.089656	0.134385	-31.923283	-82.722488	163.386460			
63358	1598565	7.701317	-2.241169	1.324950	0.136524	-0.119145	0.122431	-32.091017	-82.728484	163.575272			
63359	1598590	7.461515	-2.128822	1.452777	0.074537	-0.127588	0.117438	-32.268248	-82.735813	163.764704			
63360	1598615	7.252163	-1.936639	1.566245	0.023223	-0.132918	0.107658	-32.447609	-82.744413	163.948087			
63361	1598640	7.154379	-1.733494	1.683811	-0.018808	-0.141022	0.104918	-32.635273	-82.754177	164.134550			
63362	1598665	7.091058	-1.550924	1.778746	-0.054255	-0.147495	0.116806	-32.843747	-82.763718	164.336869			
63363	1598690	7.081541	-1.343514	1.847175	-0.086255	-0.155006	0.119726	-33.064741	-82.773840	164.547184			
63364	1598715	7.113353	-1.196462	1.880919	-0.116478	-0.156863	0.140846	-33.312253	-82.782364	164.779093			
63365	1598740	7.176720	-1.096273	1.939764	-0.140943	-0.153588	0.159913	-33.579311	-82.788916	165.027936			
63366	1598765	7.311605	-1.019587	2.015846	-0.168592	-0.152741	0.181940	-33.870986	-82.793462	165.297596			
63367	1598790	7.440976	-1.021136	2.057125	-0.190263	-0.153823	0.200018	-34.183756	-82.796510	165.585387			
63368	1598815	7.629665	-0.993697	2.071957	-0.210311	-0.144736	0.218931	-34.511905	-82.796692	165.885082			
63369	1598840	7.865026	-1.051632	2.099803	-0.231484	-0.142247	0.228283	-34.849758	-82.795660	166.192205			
63370	1598865	8.206743	-1.048709	2.045532	-0.249013	-0.134234	0.235504	-35.191477	-82.792866	166.500694			
63371	1598890	8.611815	-1.088393	1.963240	-0.265969	-0.122592	0.257744	-35.548194	-82.786633	166.821857			
63372	1598915	9.011188	-1.157111	1.936724	-0.264071	-0.097735	0.261246	-35.891166	-82.776905	167.128798			
63373	1598940	9.352754	-1.246390	1.884818	-0.262472	-0.067090	0.271572	-36.221618	-82.762596	167.424004			
63374	1598965	9.661332	-1.313623	1.823632	-0.247315	-0.031778	0.274783	-36.527914	-82.743736	167.697059			
63375	1598990	9.866511	-1.445470	1.758210	-0.232710	0.005826	0.271009	-36.801955	-82.720703	167.939719			
63376	1599015	10.133791	-1.501586	1.686448	-0.198801	0.048694	0.269608	-37.039768	-82.692676	168.150142			
63377	1599040	10.416232	-1.539940	1.628034	-0.157689	0.097792	0.266548	-37.233871	-82.659276	168.323072			
63378	1599065	10.763376	-1.614052	1.553579	-0.107989	0.157629	0.268807	-37.380994	-82.618797	168.455823			
63379	1599090	11.202790	-1.685377	1.488532	-0.045882	0.215101	0.279661	-37.488729	-82.570798	168.557840			
63380	1599115	11.600836	-1.752723	1.448620	0.025432	0.275268	0.292166	-37.556077	-82.514783	168.628803			
63381	1599140	12.052554	-1.844747	1.411388	0.108540	0.333400	0.301918	-37.580181	-82.451378	168.668801			
63382	1599165	12.482214	-1.913581	1.391469	0.197956	0.384450	0.304882	-37.560146	-82.381919	168.677197			
63383	1599190	12.983618	-1.971175	1.333070	0.293532	0.427808	0.305945	-37.499456	-82.307443	168.658388			
63384	1599215	13.505705	-2.006805	1.273423	0.384073	0.477505	0.303976	-37.393617	-82.227412	168.606418			
63385	1599240	14.052747	-2.027117	1.151476	0.483562	0.519218	0.298551	-37.244115	-82.143156	168.525432			
63386	1599265	14.623212	-1.987044	1.073488	0.565840	0.568642	0.298043	-37.054300	-82.053270	168.415628			
63387	1599290	15.166010	-1.966274	1.022114	0.642212	0.607076	0.293197	-36.829616	-81.959346	168.281634			
63388	1599315	15.674583	-1.865768	0.942937	0.716117	0.643912	0.300552	-36.582801	-81.860417	168.135199			
63389	1599340	16.155484	-1.780388	0.898383	0.769665	0.675833	0.302181	-36.315259	-81.757650	167.976285			
63390	1599365	16.646086	-1.689538	0.843087	0.817377	0.707081	0.305089	-36.030483	-81.650916	167.806819			
63391	1599390	17.136665	-1.588981	0.793209	0.856264	0.740321	0.308052	-35.729474	-81.539951	167.626528			
63392	1599415	17.580595	-1.478636	0.680848	0.884696	0.772091	0.314617	-35.418581	-81.424537	167.439493			
63393	1599440	18.180114	-1.242114	0.659457	0.880379	0.804657	0.327449	-35.106749	-81.304166	167.251639			
63394	1599465	18.732837	-0.978188	0.636725	0.872435	0.837598	0.348362	-34.801311	-81.178062	167.069041			
63395	1599490	19.291214	-0.708446	0.566196	0.839462	0.870096	0.398857	-34.528458	-81.043876	166.914580			
63396	1599515	19.870002	-0.524205	0.544560	0.784286	0.906119	0.444678	-34.285804	-80.901566	166.781790			
63397	1599540	20.283370	-0.462268	0.522423	0.726785	0.949435	0.487291	-34.066364	-80.750665	166.664962			
63398	1599565	20.521629	-0.417024	0.558578	0.668471	0.986217	0.525329	-33.870142	-80.592282	166.563149			
63399	1599590	20.645479	-0.415712	0.593277	0.612283	1.021307	0.541784	-33.681890	-80.428357	166.461207			
63400	1599615	20.743237	-0.371886	0.639936	0.546095	1.051853	0.540734	-33.493444	-80.260776	166.348548			
63401	1599640	20.973228	-0.194908	0.752289	0.502978	1.076401	0.529360	-33.296964	-80.091134	166.222265			
63402	1599665	21.142633	-0.004177	0.863311	0.460455	1.097851	0.528252	-33.101738	-79.918935	166.091005			
63403	1599690	21.342231	0.114905	0.989930	0.420779	1.102460	0.520723	-32.910619	-79.746694	165.958074			
63404	1599715	21.387286	0.117027	1.157475	0.388810	1.099408	0.514518	-32.726915	-79.575200	165.827131			
63405	1599740	20.978859	0.003506	1.405342	0.337084	1.089134	0.491800	-32.544879	-79.406652	165.691100			
63406	1599765	20.666902	0.077834	1.736111	0.282022	1.050681	0.467941	-32.375973	-79.244511	165.560332			
63407	1599790	20.083268	-0.036189	2.100777	0.205398	0.976867	0.453058	-32.242309	-79.092382	165.454201			
63408	1599815	19.268157	-0.273719	2.415726	0.119251	0.891802	0.421296	-32.137920	-78.952931	165.364525			
63409	1599840	18.402102	-0.468833	2.762592	0.026868	0.775066	0.385709	-32.071876	-78.830345	165.301146			
63410	1599865	17.635218	-0.643255	3.110980	-0.066178	0.629841	0.341532	-32.048905	-78.728737	165.268066			
63411	1599890	16.974836	-0.707268	3.329557	-0.157560	0.469136	0.299723	-32.074995	-78.649818	165.271659			
63412	1599915	16.509043	-0.638943	3.466459	-0.220235	0.307502	0.277229	-32.157492	-78.592205	165.323004			
63413	1599940	16.222512	-0.564973	3.534276	-0.264071	0.146709	0.284544	-32.310401	-78.553509	165.440418			
63414	1599965	15.792752	-0.713128	3.469818	-0.291170	-0.012353	0.302555	-32.537273	-78.532585	165.629350			
63415	1599990	15.511537	-0.994706	3.398289	-0.305165	-0.159366	0.291525	-32.814982	-78.530074	165.868117			
63416	1600015	15.482909	-1.091695	3.229115	-0.318447	-0.319004	0.272612	-33.145051	-78.547953	166.157845			
63417	1600040	15.443826	-1.119237	2.862311	-0.330754	-0.472896	0.254391	-33.527070	-78.585339	166.499264			
63418	1600065	15.520789	-1.096767	2.378827	-0.349505	-0.601250	0.234456	-33.953363	-78.639122	166.883052			
63419	1600090	15.455743	-1.108787	1.927059	-0.389086	-0.684636	0.213675	-34.410609	-78.703873	167.292547			
63420	1600115	15.278691	-1.144872	1.647816	-0.455822	-0.741948	0.195760	-34.895597	-78.776158	167.719998			
63421	1600140	14.962370	-1.200330	1.424207	-0.547001	-0.784786	0.162998	-35.397985	-78.855454	168.152245			
63422	1600165	14.559505	-1.112806	1.201052	-0.669845	-0.810601	0.125659	-35.913592	-78.940124	168.579910			
63425	1600190	14.085298	-0.903996	0.926441	-0.790602	-0.807928	0.104973	-36.440309	-79.025481	169.001148			
63426	1600215	13.655225	-0.601865	0.688106	-0.904492	-0.766892	0.099140	-36.969132	-79.105871	169.407302			
63427	1600240	13.236059	-0.243566	0.517731	-0.989274	-0.685576	0.126320	-37.495980	-79.173927	169.799473			
63428	1600265	12.866030	0.090759	0.521367	-1.058796	-0.580685	0.171219	-38.016645	-79.225488	170.175133			
63429	1600290	12.616630	0.256601	0.664004	-1.110274	-0.467201	0.235014	-38.533362	-79.257988	170.539217			
63430	1600315	12.481251	0.272553	0.839412	-1.167922	-0.355238	0.303266	-39.048007	-79.271247	170.892307			
63431	1600340	12.459502	0.089803	1.177640	-1.228452	-0.264178	0.357647	-39.560161	-79.268891	171.234484			
63432	1600365	12.520204	-0.160438	1.544876	-1.281447	-0.199659	0.370296	-40.055703	-79.257716	171.552034			
63433	1600390	12.520479	-0.300637	1.911061	-1.325657	-0.161179	0.352949	-40.527932	-79.243444	171.839422			
63434	1600415	12.489238	-0.415943	2.225529	-1.356108	-0.147967	0.309301	-40.972276	-79.231392	172.093631			
63435	1600440	12.397761	-0.331754	2.511304	-1.374783	-0.159226	0.246324	-41.388367	-79.226136	172.316733			
63436	1600465	12.211576	-0.157866	2.720407	-1.382891	-0.190207	0.189003	-41.788602	-79.229353	172.522512			
63437	1600490	11.942788	-0.015455	2.893466	-1.391313	-0.229949	0.151709	-42.189437	-79.240105	172.727669			
63438	1600515	11.682236	0.036338	3.019746	-1.384110	-0.280695	0.118470	-42.597290	-79.259166	172.940793			
63439	1600540	11.330741	-0.001102	3.121711	-1.369689	-0.335342	0.094412	-43.018916	-79.286022	173.170237			
63440	1600565	11.063239	-0.164824	3.151615	-1.335468	-0.400791	0.079334	-43.463044	-79.320864	173.427547			
63441	1600590	10.700648	-0.314946	3.210671	-1.282527	-0.476915	0.057240	-43.929888	-79.365395	173.715655			
63442	1600615	10.382322	-0.441411	3.210055	-1.223039	-0.554358	0.045405	-44.426337	-79.418612	174.042451			
63443	1600640	10.115051	-0.619872	3.129632	-1.155559	-0.625909	0.035080	-44.950466	-79.479619	174.407228			
63444	1600665	9.875246	-0.857515	3.054314	-1.099742	-0.700814	0.025176	-45.507723	-79.548557	174.813751			
63445	1600690	9.698803	-1.184366	2.930898	-1.044094	-0.766196	0.008044	-46.090802	-79.625044	175.254536			
63446	1600715	9.559630	-1.447925	2.795720	-0.995392	-0.825309	-0.005335	-46.701021	-79.707920	175.729943			
63447	1600740	9.434429	-1.686516	2.592900	-0.967773	-0.874873	-0.006300	-47.344460	-79.794804	176.242946			
63448	1600765	9.357222	-1.980291	2.448393	-0.958136	-0.908395	-0.000498	-48.019444	-79.883250	176.789258			
63449	1600790	9.207295	-2.165214	2.254998	-0.951514	-0.925847	0.004107	-48.717213	-79.971703	177.359524			
63450	1600815	9.035288	-2.351643	2.085526	-0.942126	-0.930819	0.022361	-49.437559	-80.057397	177.954002			
63451	1600840	8.899242	-2.522668	1.856390	-0.935121	-0.922317	0.048560	-50.176706	-80.138128	178.568358			
63452	1600865	8.800270	-2.699320	1.669717	-0.904434	-0.895945	0.063665	-50.913410	-80.213420	179.184549			
63453	1600890	8.749600	-2.808668	1.487294	-0.864836	-0.852606	0.081739	-51.635765	-80.281465	179.791804			
63454	1600915	8.718129	-2.865930	1.363569	-0.814048	-0.791531	0.087029	-52.322095	-80.342240	-179.630199			
63455	1600940	8.729215	-2.891890	1.323600	-0.753735	-0.729746	0.081560	-52.963151	-80.397150	-179.089486			
63456	1600965	8.715710	-2.806378	1.258769	-0.691302	-0.654362	0.083509	-53.551338	-80.444404	-178.593401			
63457	1600990	8.751577	-2.689586	1.300394	-0.606704	-0.583592	0.074369	-54.079131	-80.485923	-178.146333			
63458	1601015	8.783455	-2.527370	1.316850	-0.508484	-0.514574	0.068629	-54.545938	-80.521680	-177.746917			
63459	1601040	8.826349	-2.288246	1.378797	-0.404504	-0.444786	0.059254	-54.947260	-80.552281	-177.398797			
63460	1601065	8.887086	-2.024571	1.475382	-0.301160	-0.385313	0.051661	-55.290221	-80.578531	-177.094860			
63461	1601090	9.091215	-1.679720	1.568312	-0.186737	-0.331552	0.046575	-55.577689	-80.600737	-176.830580			
63462	1601115	9.188037	-1.331977	1.602754	-0.094150	-0.291304	0.054437	-55.828107	-80.618541	-176.590456			
63463	1601140	9.069862	-1.037802	1.663432	-0.020188	-0.237685	0.062698	-56.034247	-80.630926	-176.384453			
63464	1601165	8.914343	-0.809789	1.750497	0.029153	-0.183089	0.062464	-56.194307	-80.638871	-176.217996			
63465	1601190	8.909173	-0.581443	1.753939	0.060442	-0.113089	0.044541	-56.290866	-80.643319	-176.111357			
63466	1601215	9.089945	-0.292741	1.782915	0.058818	-0.033110	0.011975	-56.314116	-80.645253	-176.079205			
63467	1601240	9.215725	0.136050	1.857491	0.037952	0.049895	-0.016318	-56.266715	-80.643982	-176.121733			
63468	1601265	9.125016	0.594700	2.048966	0.004666	0.122800	-0.021520	-56.168933	-80.637514	-176.220154			
63469	1601290	9.096302	1.053326	2.243117	-0.039357	0.178197	0.000384	-56.048320	-80.623986	-176.348108			
63470	1601315	9.056462	1.338893	2.372921	-0.080484	0.221366	0.033155	-55.918789	-80.603047	-176.490866			
63471	1601340	8.927024	1.539303	2.485119	-0.124179	0.250338	0.072692	-55.794729	-80.575057	-176.634646			
63472	1601365	8.771267	1.570772	2.547596	-0.176452	0.276433	0.103299	-55.675255	-80.541288	-176.781380			
63473	1601390	8.631952	1.511462	2.600465	-0.244173	0.296688	0.119147	-55.559784	-80.503958	-176.933905			
63474	1601415	8.481599	1.413794	2.631939	-0.302300	0.317788	0.112453	-55.435433	-80.465644	-177.103465			
63475	1601440	8.406831	1.293822	2.715215	-0.356376	0.332165	0.096361	-55.302348	-80.428003	-177.290184			
63476	1601465	8.363852	1.246748	2.806674	-0.393385	0.341956	0.070721	-55.156606	-80.392504	-177.495135			
63477	1601490	8.278195	1.147566	2.856794	-0.412315	0.339869	0.050482	-55.006511	-80.359466	-177.707274			
63478	1601515	8.137526	1.047065	2.878948	-0.407642	0.325006	0.024487	-54.854351	-80.330597	-177.920218			
63479	1601540	7.933489	0.945253	2.901038	-0.398706	0.291619	-0.000954	-54.712764	-80.307379	-178.121783			
63480	1601565	7.708998	0.841045	2.830147	-0.380176	0.251549	-0.020106	-54.587366	-80.289641	-178.304244			
63481	1601590	7.502563	0.706839	2.687375	-0.358932	0.213172	-0.045197	-54.473387	-80.277955	-178.472041			
63482	1601615	7.326410	0.499870	2.504564	-0.341317	0.180447	-0.072536	-54.365798	-80.272121	-178.630005			
63483	1601640	7.126826	0.313480	2.336426	-0.321776	0.157914	-0.100887	-54.257321	-80.271424	-178.786826			
63484	1601665	6.934155	0.147701	2.177649	-0.303328	0.141986	-0.132482	-54.141531	-80.275680	-178.948384			
63485	1601690	6.752520	-0.007084	2.021548	-0.291574	0.137621	-0.163883	-54.011450	-80.283886	-179.122730			
63486	1601715	6.617626	-0.130450	1.914741	-0.280705	0.134663	-0.200105	-53.863306	-80.296459	-179.312932			
63487	1601740	6.458038	-0.179570	1.812168	-0.266391	0.130968	-0.229834	-53.700756	-80.312699	-179.516546			
63488	1601765	6.309376	-0.296056	1.705398	-0.240996	0.132470	-0.257142	-53.519285	-80.331856	-179.735652			
63489	1601790	6.181414	-0.369944	1.613386	-0.219208	0.142203	-0.272888	-53.319396	-80.351872	-179.970263			
63490	1601815	6.076722	-0.501734	1.545089	-0.197870	0.144270	-0.289641	-53.105282	-80.373483	179.784743			
63491	1601840	5.970725	-0.567501	1.486356	-0.170125	0.143261	-0.293991	-52.884996	-80.395529	179.536604			
63492	1601865	5.896425	-0.637343	1.411671	-0.129399	0.145918	-0.299887	-52.652970	-80.417854	179.282492			
63493	1601890	5.845573	-0.715401	1.323668	-0.080821	0.139289	-0.306787	-52.413737	-80.441366	179.028145			
63494	1601915	5.768595	-0.785170	1.221079	-0.031050	0.148883	-0.313501	-52.155797	-80.464606	178.763017			
63495	1601940	5.778365	-0.864539	1.121139	0.022177	0.145967	-0.319541	-51.888113	-80.488592	178.494816			
63496	1601965	5.773007	-0.932962	1.019922	0.077038	0.150718	-0.321712	-51.606869	-80.512187	178.220852			
63497	1601990	5.766197	-0.989080	0.954628	0.131649	0.151913	-0.330408	-51.310946	-80.536422	177.939957			
63498	1602015	5.803495	-1.036966	0.884058	0.182205	0.154154	-0.341985	-50.998146	-80.561491	177.650234			
63499	1602040	5.794038	-1.073743	0.786928	0.235817	0.160806	-0.344798	-50.670458	-80.586014	177.352303			
63500	1602065	5.813334	-1.088837	0.773583	0.287196	0.161625	-0.353451	-50.328450	-80.611133	177.047340			
63501	1602090	5.835651	-1.076034	0.672664	0.335148	0.158925	-0.358899	-49.976599	-80.636797	176.739383			
63502	1602115	5.837146	-1.056639	0.628878	0.370745	0.161718	-0.368884	-49.609991	-80.662968	176.422542			
63503	1602140	5.837305	-1.041328	0.577092	0.410763	0.163426	-0.370534	-49.234033	-80.688837	176.101178			
63504	1602165	5.831923	-1.024662	0.533299	0.443299	0.165418	-0.375095	-48.847541	-80.714665	175.773886			
63505	1602190	5.859588	-1.002540	0.498833	0.470868	0.162783	-0.373986	-48.457502	-80.740265	175.447025			
63506	1602215	5.845882	-0.937940	0.510996	0.490633	0.163361	-0.364138	-48.067727	-80.764383	175.124157			
63507	1602240	5.840591	-0.884086	0.454033	0.494802	0.165072	-0.356820	-47.679084	-80.787221	174.802229			
63508	1602265	5.826935	-0.844113	0.432893	0.494784	0.165027	-0.351560	-47.291883	-80.809157	174.481779			
63509	1602290	5.805123	-0.765533	0.386625	0.491649	0.162526	-0.336130	-46.914426	-80.829376	174.170764			
63510	1602315	5.772118	-0.736643	0.384056	0.472097	0.165100	-0.316328	-46.548378	-80.846939	173.869276			
63511	1602340	5.796929	-0.705054	0.396104	0.456621	0.167498	-0.311509	-46.185038	-80.863474	173.567509			
63512	1602365	5.805277	-0.656892	0.390963	0.416727	0.166832	-0.300354	-45.833583	-80.878627	173.272005			
63513	1602390	5.813545	-0.591022	0.427066	0.388379	0.162810	-0.294681	-45.491244	-80.893316	172.981635			
63514	1602415	5.808059	-0.541578	0.445825	0.361840	0.159109	-0.284562	-45.160121	-80.907063	172.699539			
63515	1602440	5.765390	-0.493502	0.463250	0.326838	0.153442	-0.278181	-44.841047	-80.920498	172.423824			
63516	1602465	5.762623	-0.426260	0.509968	0.291596	0.146759	-0.271676	-44.534522	-80.933720	172.155715			
63517	1602490	5.752933	-0.371454	0.560627	0.265439	0.135820	-0.254640	-44.248747	-80.946137	171.904835			
63518	1602515	5.773514	-0.372940	0.589867	0.232960	0.124691	-0.246395	-43.978892	-80.958669	171.666104			
63519	1602540	5.816146	-0.314009	0.652546	0.207843	0.110167	-0.234227	-43.729216	-80.971338	171.443440			
63520	1602565	5.836694	-0.290890	0.711090	0.186977	0.092900	-0.221261	-43.501094	-80.984371	171.239581			
63521	1602590	5.871074	-0.271747	0.743083	0.168484	0.071433	-0.207196	-43.297567	-80.998133	171.057950			
63522	1602615	5.959053	-0.296716	0.797522	0.157380	0.046481	-0.207195	-43.110190	-81.014389	170.891791			
63523	1602640	6.067748	-0.320259	0.825408	0.134374	0.023128	-0.195883	-42.947728	-81.031919	170.746804			
63524	1602665	6.147502	-0.313587	0.885275	0.134714	-0.007243	-0.186794	-42.809455	-81.051692	170.626360			
63527	1602690	6.212160	-0.343908	0.897174	0.120200	-0.035954	-0.190490	-42.687964	-81.074802	170.520808			
63528	1602715	6.282385	-0.320634	0.918562	0.122443	-0.060867	-0.186646	-42.583267	-81.100117	170.433307			
63529	1602740	6.380061	-0.348246	0.942429	0.117524	-0.090630	-0.187480	-42.496914	-81.128646	170.362947			
63530	1602765	6.464006	-0.404634	0.938338	0.116912	-0.117227	-0.177512	-42.433442	-81.159007	170.315661			
63531	1602790	6.574162	-0.417053	0.942345	0.116241	-0.138454	-0.171284	-42.387162	-81.191004	170.285679			
63532	1602815	6.662279	-0.428102	0.950306	0.118396	-0.165191	-0.165923	-42.360381	-81.225297	170.276456			
63533	1602840	6.736649	-0.413017	0.957094	0.121413	-0.182463	-0.167651	-42.342979	-81.261598	170.276449			
63534	1602865	6.867460	-0.421345	0.965105	0.122994	-0.193799	-0.161856	-42.336432	-81.298539	170.287651			
63535	1602890	6.954175	-0.468083	0.962341	0.116123	-0.201906	-0.154424	-42.341188	-81.335622	170.309292			
63536	1602915	7.096035	-0.477760	0.958394	0.115611	-0.216909	-0.154535	-42.355290	-81.374291	170.341016			
63537	1602940	7.228206	-0.479196	0.970464	0.114453	-0.222164	-0.144398	-42.380533	-81.412549	170.383130			
63538	1602965	7.352108	-0.491661	0.991718	0.121947	-0.233465	-0.139825	-42.415481	-81.451557	170.436140			
63539	1602990	7.434759	-0.504059	0.983734	0.124374	-0.252709	-0.116852	-42.479144	-81.490371	170.518532			
63540	1603015	7.590561	-0.543560	0.889391	0.137924	-0.253010	-0.119334	-42.539658	-81.529432	170.600392			
63541	1603040	7.750368	-0.539434	0.870911	0.152107	-0.243998	-0.118268	-42.593966	-81.567439	170.677325			
63542	1603065	7.821900	-0.576609	0.884133	0.172104	-0.229223	-0.119515	-42.635390	-81.604000	170.744124			
63543	1603090	7.916969	-0.555985	0.881614	0.205204	-0.205757	-0.127822	-42.651080	-81.638890	170.789696			
63544	1603115	7.972030	-0.529944	0.906992	0.240989	-0.170982	-0.135289	-42.633146	-81.670829	170.807145			
63545	1603140	7.998097	-0.454651	0.993646	0.276965	-0.121208	-0.143410	-42.571400	-81.698320	170.784839			
63546	1603165	8.011705	-0.424700	1.073503	0.302951	-0.072703	-0.131460	-42.482048	-81.719530	170.738399			
63547	1603190	8.058296	-0.414133	1.177216	0.328538	-0.012714	-0.120665	-42.356647	-81.733341	170.659236			
63548	1603215	8.088192	-0.414731	1.344657	0.349405	0.042222	-0.106224	-42.201702	-81.739900	170.553926			
63549	1603240	8.153757	-0.467743	1.530564	0.373487	0.095494	-0.092326	-42.018375	-81.739428	170.422739			
63550	1603265	8.219351	-0.497382	1.724495	0.386837	0.141460	-0.080793	-41.811384	-81.732889	170.269571			
63551	1603290	8.205008	-0.531153	1.935644	0.402659	0.173906	-0.075498	-41.585089	-81.722293	170.099182			
63552	1603315	8.248598	-0.544288	2.128293	0.416534	0.197482	-0.062354	-41.351369	-81.707809	169.924000			
63553	1603340	8.264313	-0.619622	2.416389	0.434060	0.212513	-0.064003	-41.105255	-81.691767	169.738116			
63554	1603365	8.211441	-0.625905	2.630279	0.457330	0.207546	-0.073448	-40.852837	-81.677033	169.549223			
63555	1603390	8.173632	-0.685855	2.851929	0.471100	0.191011	-0.083977	-40.601944	-81.664959	169.363858			
63556	1603415	8.105821	-0.636955	3.014170	0.486490	0.160970	-0.096062	-40.359163	-81.657150	169.189668			
63557	1603440	8.003578	-0.642886	3.140328	0.508380	0.120881	-0.104858	-40.132651	-81.654450	169.034334			
63558	1603465	7.916592	-0.608931	3.250675	0.520128	0.075369	-0.117910	-39.923347	-81.657858	168.898094			
63559	1603490	7.824377	-0.518225	3.277494	0.533207	0.016494	-0.127898	-39.741341	-81.668592	168.791338			
63560	1603515	7.739161	-0.447956	3.249792	0.547578	-0.040102	-0.131352	-39.589286	-81.685818	168.717755			
63561	1603540	7.674604	-0.442192	3.180633	0.550504	-0.083068	-0.133707	-39.461768	-81.707998	168.668579			
63562	1603565	7.586828	-0.375717	3.065231	0.542121	-0.127956	-0.129180	-39.366510	-81.734720	168.650791			
63563	1603590	7.566538	-0.379275	2.911067	0.520885	-0.157955	-0.137429	-39.286427	-81.765511	168.645265			
63564	1603615	7.545010	-0.371638	2.709123	0.491664	-0.177687	-0.135300	-39.223869	-81.798275	168.654092			
63565	1603640	7.553817	-0.344703	2.496597	0.459708	-0.181754	-0.124142	-39.177267	-81.830502	168.673539			
63566	1603665	7.534888	-0.408670	2.319676	0.425211	-0.173752	-0.125687	-39.129247	-81.861983	168.686561			
63567	1603690	7.528336	-0.438346	2.164099	0.395276	-0.160797	-0.120488	-39.081228	-81.891556	168.695251			
63568	1603715	7.582317	-0.534040	1.996391	0.364904	-0.135927	-0.105156	-39.033214	-81.916957	168.700453			
63569	1603740	7.622479	-0.567988	1.886021	0.336954	-0.095989	-0.098251	-38.969488	-81.937314	168.684840			
63570	1603765	7.695654	-0.559530	1.819641	0.320271	-0.059202	-0.083773	-38.895947	-81.952265	168.656901			
63571	1603790	7.704021	-0.637539	1.731673	0.327954	-0.023097	-0.073986	-38.805877	-81.962304	168.613382			
63572	1603815	7.745414	-0.673140	1.682414	0.337817	0.005817	-0.070001	-38.698599	-81.968722	168.554816			
63573	1603840	7.862616	-0.692160	1.613322	0.351329	0.033666	-0.064845	-38.576109	-81.971569	168.481939			
63574	1603865	8.006212	-0.688880	1.473886	0.362331	0.065841	-0.061421	-38.434368	-81.970482	168.391211			
63575	1603890	8.155364	-0.673198	1.315915	0.376906	0.099798	-0.053914	-38.275186	-81.964879	168.284977			
63576	1603915	8.381527	-0.645376	1.216463	0.405163	0.136936	-0.042433	-38.097642	-81.954011	168.165178			
63577	1603940	8.636524	-0.660244	1.130202	0.417221	0.184184	-0.035203	-37.895568	-81.937141	168.021451			
63578	1603965	8.851611	-0.653052	1.041316	0.426722	0.232922	-0.018875	-37.675814	-81.913246	167.861234			
63579	1603990	8.997820	-0.640418	0.959086	0.446192	0.270219	-0.013866	-37.435586	-81.884588	167.683145			
63580	1604015	9.124663	-0.658102	0.899310	0.465392	0.312418	-0.001708	-37.177843	-81.849935	167.490992			
63581	1604040	9.299685	-0.645610	0.866181	0.481577	0.355779	0.010547	-36.903886	-81.809163	167.283917			
63582	1604065	9.489843	-0.631814	0.834469	0.500859	0.393073	0.015116	-36.611144	-81.763576	167.060630			
63583	1604090	9.663572	-0.556043	0.801616	0.517792	0.433485	0.026754	-36.304482	-81.712176	166.825700			
63584	1604115	9.813915	-0.478882	0.762047	0.538786	0.471880	0.032404	-35.980195	-81.655649	166.576803			
63585	1604140	9.997245	-0.389523	0.757117	0.562920	0.502767	0.040056	-35.645239	-81.594709	166.319740			
63586	1604165	10.234139	-0.366221	0.763965	0.586249	0.532056	0.047576	-35.300811	-81.529507	166.056439			
63587	1604190	10.506981	-0.311169	0.747043	0.601557	0.556693	0.054470	-34.950743	-81.460617	165.789606			
63588	1604215	10.768778	-0.264427	0.731373	0.611018	0.570373	0.055116	-34.597061	-81.389803	165.521252			
63589	1604240	11.018127	-0.201233	0.743705	0.620432	0.590626	0.063299	-34.243090	-81.315708	165.253107			
63590	1604265	11.279906	-0.159980	0.732014	0.615059	0.602763	0.062054	-33.887884	-81.240024	164.982879			
63591	1604290	11.540319	-0.061092	0.751091	0.607251	0.607115	0.072901	-33.545251	-81.162712	164.724187			
63592	1604315	11.774496	-0.008926	0.767363	0.585748	0.615609	0.078185	-33.210356	-81.083715	164.470948			
63593	1604340	11.956317	0.013058	0.770190	0.561018	0.618982	0.082624	-32.886181	-81.003762	164.224127			
63594	1604365	12.187694	0.045894	0.796975	0.542575	0.621840	0.091231	-32.574779	-80.922586	163.987508			
63595	1604390	12.409347	0.055376	0.835673	0.508021	0.616928	0.099841	-32.281952	-80.841148	163.764637			
63596	1604415	12.620018	0.049748	0.854399	0.477059	0.615248	0.103350	-32.001178	-80.759453	163.550211			
63597	1604440	12.827965	0.033144	0.859751	0.446618	0.606029	0.114976	-31.742244	-80.677857	163.352668			
63598	1604465	13.072979	-0.004133	0.892987	0.418116	0.602237	0.126231	-31.501341	-80.595740	163.169214			
63599	1604490	13.366170	-0.082697	0.919413	0.387737	0.588356	0.129315	-31.276877	-80.514969	162.997971			
63600	1604515	13.600225	-0.183086	0.894017	0.363317	0.568783	0.132637	-31.069953	-80.436231	162.841688			
63601	1604540	13.875409	-0.353657	0.900227	0.337218	0.549899	0.142971	-30.885655	-80.358977	162.703763			
63602	1604565	14.138397	-0.485623	0.856045	0.317004	0.526232	0.146200	-30.719235	-80.284328	162.581007			
63603	1604590	14.405515	-0.680648	0.771886	0.305887	0.496990	0.153248	-30.573993	-80.212712	162.478096			
63604	1604615	14.618857	-0.922402	0.683466	0.294013	0.474195	0.152041	-30.440644	-80.143943	162.386229			
63605	1604640	14.804651	-1.201192	0.576374	0.286597	0.447828	0.143585	-30.315104	-80.079021	162.300470			
63606	1604665	14.895553	-1.374114	0.470911	0.286473	0.422977	0.127076	-30.189516	-80.018333	162.214627			
63607	1604690	14.914848	-1.581339	0.345342	0.294203	0.406757	0.107630	-30.057060	-79.961020	162.122920			
63608	1604715	14.835050	-1.743108	0.218469	0.312308	0.386940	0.080355	-29.911992	-79.908071	162.021662			
63609	1604740	14.700268	-1.851218	0.074621	0.342022	0.375140	0.048278	-29.746595	-79.858834	161.903421			
63610	1604765	14.429076	-1.923726	-0.022779	0.375979	0.371976	0.021988	-29.560738	-79.811790	161.769316			
63611	1604790	14.166081	-1.971564	-0.073580	0.391412	0.364040	-0.005005	-29.358570	-79.767558	161.620866			
63612	1604815	13.916893	-1.974094	-0.121587	0.422812	0.362177	-0.030234	-29.136535	-79.725222	161.457314			
63613	1604840	13.739323	-1.925962	-0.136109	0.446090	0.360425	-0.045262	-28.903264	-79.684040	161.285172			
63614	1604865	13.538173	-1.882114	-0.080322	0.475849	0.363256	-0.061010	-28.655455	-79.643459	161.102562			
63615	1604890	13.434653	-1.798733	0.058088	0.522030	0.351603	-0.070907	-28.400256	-79.604878	160.919142			
63616	1604915	13.350477	-1.779747	0.136482	0.568798	0.331244	-0.065835	-28.150788	-79.568375	160.748778			
63617	1604940	13.216743	-1.753834	0.206931	0.599928	0.311524	-0.070013	-27.902792	-79.534514	160.583986			
63618	1604965	13.110701	-1.618002	0.283046	0.629927	0.283080	-0.068557	-27.663052	-79.504034	160.431942			
63619	1604990	13.089894	-1.493346	0.410944	0.628565	0.247741	-0.054030	-27.447148	-79.476969	160.303928			
63620	1605015	13.184967	-1.389060	0.453852	0.623772	0.204676	-0.023299	-27.268874	-79.453281	160.213847			
63621	1605040	13.482495	-1.352016	0.463442	0.603196	0.154056	0.024043	-27.144356	-79.432896	160.175076			
63622	1605065	13.783945	-1.396276	0.509955	0.573841	0.113574	0.077644	-27.075052	-79.414163	160.188195			
63623	1605090	14.243806	-1.443229	0.543273	0.540045	0.064224	0.130916	-27.064166	-79.398253	160.255820			
63624	1605115	14.681623	-1.557470	0.544503	0.493707	0.013793	0.183643	-27.113154	-79.385335	160.377909			
63625	1605140	15.118044	-1.701897	0.537544	0.439653	-0.043745	0.221550	-27.215617	-79.377237	160.546233			
63626	1605165	15.447243	-1.730730	0.505787	0.388759	-0.106445	0.253911	-27.369105	-79.374926	160.759058			
63629	1605190	15.753273	-1.700244	0.422373	0.353283	-0.169885	0.285122	-27.571144	-79.378493	161.016109			
63630	1605215	16.052363	-1.878329	0.226618	0.323965	-0.226112	0.308585	-27.813366	-79.387453	161.309987			
63631	1605240	16.323932	-2.109979	-0.007696	0.300671	-0.257020	0.342782	-28.093676	-79.397774	161.638990			
63632	1605265	16.515573	-2.429455	-0.265095	0.290781	-0.255628	0.368942	-28.393103	-79.405839	161.985991			
63633	1605290	16.628464	-2.787774	-0.465450	0.276582	-0.230531	0.399731	-28.706491	-79.408298	162.345119			
63634	1605315	16.612950	-3.106693	-0.506296	0.267215	-0.179695	0.419128	-29.015406	-79.402690	162.698437			
63635	1605340	16.557356	-3.440878	-0.491494	0.256284	-0.122301	0.424819	-29.307854	-79.389155	163.033316			
63636	1605365	16.338907	-3.739952	-0.338479	0.242318	-0.063655	0.433832	-29.585353	-79.367363	163.350971			
63637	1605390	16.036332	-4.033574	-0.109854	0.234053	-0.023220	0.410019	-29.831762	-79.341964	163.635810			
63638	1605415	15.729480	-4.429012	0.105274	0.213982	0.008363	0.367564	-30.039872	-79.315484	163.878731			
63639	1605440	15.415957	-4.610038	0.350218	0.180380	0.030208	0.301626	-30.200190	-79.290879	164.068181			
63640	1605465	15.076178	-4.620998	0.732756	0.144145	0.040953	0.232129	-30.315461	-79.269876	164.206516			
63641	1605490	14.720227	-4.388580	1.097397	0.094515	0.047217	0.172734	-30.396302	-79.252355	164.302580			
63642	1605515	14.374089	-4.043402	1.478318	0.062978	0.023268	0.134292	-30.465612	-79.240569	164.382142			
63643	1605540	14.084510	-3.647308	1.847508	0.043137	-0.019832	0.121678	-30.545861	-79.234988	164.470121			
63644	1605565	13.764598	-3.248461	2.235293	0.020763	-0.076610	0.128569	-30.655492	-79.235878	164.584745			
63645	1605590	13.467041	-2.840962	2.508823	0.011095	-0.152953	0.139242	-30.802894	-79.245338	164.736405			
63646	1605615	13.199740	-2.489774	2.756985	-0.005245	-0.238405	0.155261	-30.996551	-79.264049	164.932542			
63647	1605640	12.929839	-2.165742	2.931984	-0.011431	-0.327292	0.168583	-31.235208	-79.292525	165.173775			
63648	1605665	12.686120	-1.844464	3.099000	-0.021118	-0.416487	0.174399	-31.515710	-79.331272	165.456154			
63649	1605690	12.430230	-1.515929	3.179708	-0.036016	-0.513348	0.167885	-31.835158	-79.382042	165.775948			
63650	1605715	12.218568	-1.173534	3.198021	-0.072998	-0.592914	0.154282	-32.186737	-79.443170	166.122784			
63651	1605740	11.994651	-0.839116	3.165792	-0.117959	-0.670986	0.141878	-32.573161	-79.514275	166.498634			
63652	1605765	11.860302	-0.510147	3.105689	-0.172929	-0.724326	0.125262	-32.984420	-79.592612	166.891639			
63653	1605790	11.647373	-0.234788	3.037447	-0.252260	-0.765136	0.115788	-33.424590	-79.676052	167.302382			
63654	1605815	11.501852	0.012964	2.985090	-0.343222	-0.787430	0.116347	-33.895001	-79.761522	167.730369			
63655	1605840	11.390717	0.207136	2.929884	-0.436609	-0.789297	0.112376	-34.384525	-79.846883	168.164206			
63656	1605865	11.276704	0.380605	2.895893	-0.536454	-0.769687	0.116949	-34.890170	-79.928891	168.599779			
63657	1605890	11.214977	0.444127	2.836356	-0.621729	-0.737643	0.108522	-35.395084	-80.007162	169.022096			
63658	1605915	11.136574	0.400438	2.760425	-0.705628	-0.683938	0.109772	-35.894415	-80.078436	169.426384			
63659	1605940	11.114480	0.466267	2.817819	-0.765574	-0.621604	0.104752	-36.375030	-80.142316	169.802937			
63660	1605965	11.034501	0.482562	2.870967	-0.793614	-0.556013	0.106253	-36.833636	-80.197994	170.153007			
63661	1605990	11.026000	0.355949	2.890514	-0.785625	-0.485444	0.122288	-37.270733	-80.243751	170.482361			
63662	1606015	11.039611	0.170428	2.848735	-0.744727	-0.406771	0.137115	-37.675164	-80.278866	170.784486			
63663	1606040	11.092844	-0.221327	2.807709	-0.686883	-0.310431	0.143446	-38.028274	-80.302185	171.042913			
63664	1606065	11.151427	-0.709507	2.787461	-0.597775	-0.215969	0.130771	-38.312546	-80.315744	171.244438			
63665	1606090	11.204518	-1.087769	2.812796	-0.503478	-0.132144	0.100084	-38.519937	-80.322482	171.381668			
63666	1606115	11.209310	-1.420981	2.906009	-0.408292	-0.059564	0.060923	-38.650107	-80.324528	171.454444			
63667	1606140	11.160672	-1.645393	2.955678	-0.315374	-0.006737	0.008839	-38.705121	-80.325305	171.464429			
63668	1606165	11.021486	-1.742964	2.928650	-0.229265	0.037940	-0.029421	-38.699246	-80.324513	171.425158			
63669	1606190	10.858990	-1.803297	2.888456	-0.149217	0.067122	-0.055051	-38.649784	-80.322750	171.353302			
63670	1606215	10.700572	-1.911756	2.837478	-0.086629	0.082700	-0.078022	-38.568108	-80.321283	171.257930			
63671	1606240	10.481448	-2.057407	2.804970	-0.028032	0.086421	-0.099556	-38.461994	-80.321293	171.146213			
63672	1606265	10.269303	-2.198750	2.744529	0.026968	0.075746	-0.122821	-38.338237	-80.324533	171.024591			
63673	1606290	10.046328	-2.282196	2.641806	0.079770	0.057085	-0.149894	-38.198653	-80.332226	170.894589			
63674	1606315	9.797271	-2.353188	2.497891	0.127442	0.029986	-0.190249	-38.039309	-80.346483	170.751537			
63675	1606340	9.595122	-2.355381	2.378164	0.174598	0.005698	-0.218949	-37.866258	-80.365944	170.601377			
63676	1606365	9.300869	-2.305215	2.205405	0.213547	-0.018817	-0.254494	-37.675861	-80.391218	170.439291			
63677	1606390	9.020571	-2.217680	1.984939	0.253135	-0.044075	-0.275779	-37.477576	-80.421128	170.274969			
63678	1606415	8.760839	-2.057564	1.841824	0.289516	-0.061135	-0.292404	-37.270458	-80.454324	170.107039			
63679	1606440	8.452889	-1.963348	1.671843	0.331661	-0.082973	-0.299296	-37.062568	-80.490512	169.944415			
63680	1606465	8.180687	-1.900754	1.501823	0.387269	-0.101672	-0.304553	-36.851310	-80.529193	169.786471			
63681	1606490	7.898962	-1.787233	1.321307	0.427708	-0.108619	-0.303359	-36.637143	-80.568473	169.631467			
63682	1606515	7.622583	-1.700024	1.180592	0.466047	-0.112523	-0.303322	-36.417958	-80.608099	169.476988			
63683	1606540	7.392908	-1.676148	1.059589	0.498265	-0.113398	-0.298202	-36.196627	-80.647298	169.325002			
63684	1606565	7.176899	-1.693592	0.961074	0.530739	-0.123116	-0.295347	-35.976077	-80.687285	169.178539			
63685	1606590	6.957029	-1.613196	0.804413	0.559563	-0.120965	-0.293489	-35.750034	-80.726774	169.030710			
63686	1606615	6.730095	-1.560541	0.707440	0.571518	-0.120115	-0.286122	-35.525528	-80.765449	168.886189			
63687	1606640	6.545766	-1.525830	0.633031	0.583555	-0.115788	-0.277421	-35.301814	-80.802812	168.744233			
63688	1606665	6.362693	-1.564029	0.563694	0.588901	-0.111851	-0.269663	-35.079473	-80.838984	168.604459			
63689	1606690	6.185230	-1.555485	0.486556	0.583512	-0.108688	-0.267121	-34.856722	-80.874489	168.463502			
63690	1606715	6.040890	-1.519335	0.396218	0.577475	-0.096947	-0.263636	-34.630026	-80.908235	168.317655			
63691	1606740	5.958364	-1.524631	0.345656	0.561857	-0.091518	-0.268647	-34.397704	-80.941659	168.163890			
63692	1606765	5.852436	-1.540894	0.292407	0.553468	-0.084986	-0.268026	-34.162315	-80.974160	168.005818			
63693	1606790	5.738334	-1.503501	0.226004	0.526863	-0.069036	-0.270472	-33.919429	-81.004861	167.836311			
63694	1606815	5.657157	-1.455354	0.219504	0.509775	-0.059925	-0.277014	-33.668090	-81.034878	167.655713			
63695	1606840	5.591320	-1.378067	0.155932	0.487088	-0.051914	-0.277014	-33.414508	-81.063819	167.469638			
63696	1606865	5.519795	-1.340816	0.138713	0.472312	-0.040326	-0.276133	-33.156502	-81.091174	167.276957			
63697	1606890	5.409607	-1.335312	0.138660	0.454201	-0.035331	-0.276475	-32.896961	-81.117821	167.080111			
63698	1606915	5.332558	-1.339311	0.108044	0.431897	-0.033733	-0.273804	-32.640575	-81.143926	166.883135			
63699	1606940	5.256948	-1.292413	0.078910	0.395317	-0.028369	-0.272708	-32.386259	-81.169168	166.683069			
63700	1606965	5.168910	-1.268911	0.045707	0.365388	-0.027655	-0.269972	-32.136730	-81.193979	166.483522			
63701	1606990	5.098734	-1.249576	0.029804	0.337502	-0.027405	-0.268292	-31.891139	-81.218499	166.283931			
63702	1607015	5.038193	-1.222028	0.021870	0.290468	-0.024961	-0.258848	-31.657396	-81.241877	166.089390			
63703	1607040	4.972097	-1.234352	0.011158	0.238794	-0.024739	-0.252736	-31.434616	-81.264656	165.898599			
63704	1607065	4.900280	-1.245618	0.084170	0.194459	-0.027746	-0.252514	-31.218753	-81.287676	165.708392			
63705	1607090	4.861670	-1.256663	0.094733	0.142655	-0.033352	-0.243354	-31.019314	-81.310600	165.527306			
63706	1607115	4.849305	-1.264835	0.076091	0.097428	-0.043143	-0.240219	-30.832682	-81.334399	165.352467			
63707	1607140	4.842295	-1.280114	0.117230	0.040583	-0.055164	-0.237870	-30.660817	-81.359429	165.184506			
63708	1607165	4.847778	-1.303499	0.118481	-0.008516	-0.067794	-0.224692	-30.511807	-81.384984	165.032559			
63709	1607190	4.832595	-1.314532	0.126408	-0.060596	-0.083424	-0.223692	-30.377686	-81.412340	164.888137			
63710	1607215	4.835358	-1.306276	0.123784	-0.102964	-0.098878	-0.210963	-30.266718	-81.440637	164.760807			
63711	1607240	4.875291	-1.333761	0.113090	-0.145526	-0.119293	-0.200951	-30.179039	-81.470709	164.651067			
63712	1607265	4.924928	-1.336420	0.089176	-0.182180	-0.131293	-0.183298	-30.116329	-81.500976	164.561275			
63713	1607290	4.966098	-1.413515	0.100927	-0.225526	-0.138702	-0.179011	-30.066433	-81.531841	164.478169			
63714	1607315	5.032214	-1.453312	0.074264	-0.255713	-0.152144	-0.167447	-30.036650	-81.563530	164.410803			
63715	1607340	5.118996	-1.472529	0.059644	-0.290753	-0.155105	-0.152072	-30.025767	-81.594485	164.357703			
63716	1607365	5.226366	-1.484977	0.076916	-0.334328	-0.158313	-0.144738	-30.028640	-81.625311	164.312203			
63717	1607390	5.343488	-1.447889	0.078459	-0.372629	-0.155857	-0.134586	-30.044237	-81.655106	164.274022			
63718	1607415	5.462030	-1.414819	0.060030	-0.419199	-0.151259	-0.126645	-30.071038	-81.683760	164.240163			
63719	1607440	5.594411	-1.339128	0.040421	-0.449328	-0.143430	-0.111234	-30.111269	-81.710343	164.215780			
63720	1607465	5.736461	-1.245549	0.019553	-0.476080	-0.131498	-0.102769	-30.156704	-81.734841	164.192785			
63721	1607490	5.902004	-1.123034	-0.013140	-0.487399	-0.116907	-0.094497	-30.203649	-81.756940	164.169678			
63722	1607515	6.002593	-1.084550	-0.011627	-0.489634	-0.097145	-0.093453	-30.242149	-81.776518	164.137427			
63723	1607540	6.111508	-1.003417	-0.005980	-0.477706	-0.080939	-0.089818	-30.273830	-81.793833	164.100303			
63724	1607565	6.227335	-0.952503	-0.029665	-0.456841	-0.056350	-0.088651	-30.291177	-81.808025	164.051719			
63725	1607590	6.344527	-0.872707	-0.031965	-0.444073	-0.027481	-0.088000	-30.292699	-81.818601	163.988996			
63726	1607615	6.460312	-0.825945	-0.043705	-0.416838	-0.004640	-0.083868	-30.282461	-81.826050	163.918023			
63727	1607640	6.504477	-0.802453	-0.071514	-0.392112	0.026363	-0.087881	-30.249427	-81.829952	163.827911			
63728	1607665	6.566497	-0.790056	-0.080722	-0.357875	0.054750	-0.087568	-30.197458	-81.830308	163.723625			
63731	1607690	6.609248	-0.779013	-0.095261	-0.335811	0.087827	-0.086279	-30.126882	-81.826459	163.603733			
63732	1607715	6.576291	-0.761025	-0.119148	-0.301836	0.130160	-0.096120	-30.022085	-81.818042	163.453854			
63733	1607740	6.508855	-0.748555	-0.136424	-0.277159	0.167343	-0.101346	-29.890931	-81.805341	163.281242			
63734	1607765	6.444036	-0.781620	-0.117967	-0.255635	0.205916	-0.107737	-29.732666	-81.788240	163.084349			
63735	1607790	6.368186	-0.814692	-0.098186	-0.217615	0.242090	-0.118937	-29.542391	-81.767342	162.860606			
63736	1607815	6.266241	-0.803728	-0.079605	-0.199233	0.278571	-0.124402	-29.328347	-81.742166	162.615145			
63737	1607840	6.178020	-0.816191	-0.058460	-0.173174	0.314638	-0.127146	-29.092215	-81.712534	162.351466			
63738	1607865	6.085600	-0.847938	-0.021402	-0.150891	0.345714	-0.126813	-28.840283	-81.678824	162.075025			
63739	1607890	6.005509	-0.888060	0.040858	-0.124732	0.370872	-0.124855	-28.576690	-81.641639	161.790560			
63740	1607915	5.918515	-0.926793	0.108455	-0.098366	0.393876	-0.117704	-28.307444	-81.600878	161.503804			
63741	1607940	5.794304	-1.008152	0.161257	-0.083560	0.411555	-0.116846	-28.031324	-81.557627	161.212578			
63742	1607965	5.734894	-1.001566	0.242299	-0.069775	0.424632	-0.104462	-27.760803	-81.511688	160.928976			
63743	1607990	5.715355	-1.021157	0.331259	-0.076847	0.440088	-0.097239	-27.493585	-81.463112	160.647653			
63744	1608015	5.735752	-1.032531	0.433528	-0.085938	0.436863	-0.087997	-27.240129	-81.414151	160.378514			
63745	1608040	5.742440	-1.024619	0.517277	-0.108807	0.434330	-0.072399	-27.006934	-81.364323	160.126900			
63746	1608065	5.812469	-1.005766	0.618345	-0.145893	0.424850	-0.049490	-26.805000	-81.314079	159.901501			
63747	1608090	5.852184	-0.971792	0.730109	-0.173156	0.406776	-0.027514	-26.635280	-81.264621	159.704711			
63748	1608115	5.920882	-0.911687	0.831339	-0.214425	0.393434	-0.002927	-26.499596	-81.215221	159.535962			
63749	1608140	5.964808	-0.844671	0.929921	-0.245830	0.366379	0.016297	-26.396886	-81.168009	159.396396			
63750	1608165	6.069415	-0.750105	1.016651	-0.281182	0.337748	0.039929	-26.331574	-81.122936	159.289536			
63751	1608190	6.122888	-0.720282	1.131047	-0.319843	0.307216	0.060306	-26.301661	-81.080476	159.212890			
63752	1608215	6.261854	-0.614885	1.253749	-0.363979	0.269617	0.081412	-26.311033	-81.041504	159.169218			
63753	1608240	6.376095	-0.556014	1.316447	-0.421785	0.231221	0.111659	-26.368591	-81.005541	159.166326			
63754	1608265	6.498531	-0.528782	1.389714	-0.462329	0.195456	0.140266	-26.469168	-80.972343	159.201112			
63755	1608290	6.589304	-0.508408	1.452290	-0.516689	0.160523	0.163881	-26.610033	-80.942099	159.268811			
63756	1608315	6.692417	-0.567714	1.494703	-0.560716	0.126882	0.177319	-26.780958	-80.915267	159.360200			
63757	1608340	6.796830	-0.646360	1.552984	-0.607485	0.091651	0.194596	-26.985662	-80.891769	159.479389			
63758	1608365	6.880607	-0.733200	1.596586	-0.650843	0.061263	0.203532	-27.215187	-80.871492	159.617435			
63759	1608390	6.910624	-0.846146	1.648060	-0.679265	0.029592	0.206313	-27.463131	-80.854970	159.770020			
63760	1608415	6.965542	-0.928754	1.670430	-0.695700	0.009529	0.204173	-27.719445	-80.841031	159.928348			
63761	1608440	6.921310	-1.020938	1.679384	-0.706975	-0.009729	0.188641	-27.972421	-80.830458	160.082022			
63762	1608465	6.863293	-1.106278	1.693716	-0.707643	-0.023393	0.180784	-28.224604	-80.822035	160.234799			
63763	1608490	6.772254	-1.183311	1.708008	-0.701228	-0.033158	0.174186	-28.474474	-80.815184	160.386167			
63764	1608515	6.696292	-1.256343	1.746272	-0.683342	-0.042973	0.160962	-28.715523	-80.810369	160.530847			
63765	1608540	6.540535	-1.296297	1.772624	-0.669684	-0.049798	0.143266	-28.943478	-80.807540	160.664597			
63766	1608565	6.394531	-1.286669	1.780552	-0.636804	-0.051723	0.133696	-29.160043	-80.805535	160.791581			
63767	1608590	6.237431	-1.315591	1.801626	-0.608322	-0.060193	0.118145	-29.364127	-80.805603	160.910054			
63768	1608615	6.101104	-1.303151	1.794933	-0.563094	-0.055867	0.105062	-29.549912	-80.805985	161.016207			
63769	1608640	5.978582	-1.315425	1.768247	-0.518690	-0.064957	0.095846	-29.726107	-80.808101	161.119434			
63770	1608665	5.878059	-1.327721	1.752203	-0.484251	-0.060332	0.080840	-29.883871	-80.810663	161.208986			
63771	1608690	5.824514	-1.302757	1.697785	-0.453319	-0.064000	0.085837	-30.042728	-80.813283	161.304134			
63772	1608715	5.797007	-1.331521	1.664440	-0.429156	-0.067097	0.089957	-30.202870	-80.815943	161.403747			
63773	1608740	5.820544	-1.331324	1.613962	-0.404669	-0.065671	0.089322	-30.358314	-80.818433	161.502495			
63774	1608765	5.863358	-1.358630	1.552766	-0.386795	-0.061713	0.094531	-30.513466	-80.820014	161.603540			
