PacketCounter	SampleTimeFine	Acc_X	Acc_Y	Acc_Z	Gyr_X	Gyr_Y	Gyr_Z	Roll	Pitch	Yaw
04484	4974415	9.712897	-0.245191	0.876230	-0.212935	-0.009829	0.060460	-18.879812	-84.776917	164.201041
04485	4974440	9.694976	-0.239751	0.889508	-0.211222	-0.007208	0.064532	-19.007227	-84.775723	164.298586
04486	4974465	9.670246	-0.212196	0.880304	-0.216630	-0.004859	0.062899	-19.131744	-84.774269	164.392443
04487	4974490	9.694945	-0.242480	0.898792	-0.217952	-0.006689	0.068538	-19.265668	-84.772776	164.495557
04488	4974515	9.693543	-0.253530	0.901448	-0.227124	-0.005914	0.064151	-19.394434	-84.771300	164.592068
04489	4974540	9.675608	-0.250843	0.920050	-0.226817	-0.010984	0.067329	-19.529956	-84.770403	164.695511
04490	4974565	9.710049	-0.232978	0.922762	-0.230630	-0.010344	0.062668	-19.658777	-84.769621	164.791677
04491	4974590	9.683871	-0.237103	0.926741	-0.235949	-0.009866	0.060277	-19.784551	-84.768871	164.884019
04492	4974615	9.675612	-0.253585	0.914707	-0.241478	-0.009294	0.063659	-19.916223	-84.767794	164.981387
04493	4974640	9.661847	-0.263136	0.905387	-0.248607	-0.013103	0.065000	-20.052414	-84.767210	165.082369
04494	4974665	9.671487	-0.248098	0.918717	-0.246657	-0.014357	0.066794	-20.191610	-84.766684	165.186649
04495	4974690	9.681123	-0.234348	0.925408	-0.245672	-0.016358	0.065725	-20.330158	-84.766457	165.290419
04496	4974715	9.692191	-0.237026	0.902821	-0.247435	-0.016963	0.067618	-20.472506	-84.766126	165.397655
04497	4974740	9.707427	-0.202613	0.888323	-0.255723	-0.015830	0.069836	-20.618194	-84.765575	165.507150
04498	4974765	9.688181	-0.199803	0.875052	-0.260685	-0.016133	0.070623	-20.765884	-84.764998	165.617942
04499	4974790	9.706104	-0.190148	0.873772	-0.265990	-0.015156	0.071152	-20.914533	-84.764238	165.728933
04500	4974815	9.670253	-0.194308	0.887014	-0.275885	-0.011131	0.070053	-21.061140	-84.762903	165.836358
04501	4974840	9.682647	-0.190199	0.892351	-0.278534	-0.003128	0.074343	-21.209352	-84.760318	165.945108
04502	4974865	9.663402	-0.183284	0.880405	-0.282162	-0.004317	0.079836	-21.366620	-84.757581	166.062430
04503	4974890	9.655162	-0.186038	0.872421	-0.291638	-0.001322	0.074358	-21.515435	-84.754702	166.169901
04504	4974915	9.673062	-0.183288	0.873747	-0.295381	-0.003079	0.080110	-21.674417	-84.751660	166.286955
04505	4974940	9.682759	-0.146146	0.873896	-0.291286	0.000656	0.082166	-21.833043	-84.748050	166.404330
04506	4974965	9.678622	-0.125547	0.887230	-0.286743	0.002985	0.080301	-21.986778	-84.744201	166.517447
04507	4974990	9.674405	-0.158619	0.901746	-0.290254	0.002715	0.079320	-22.139564	-84.740413	166.629107
04508	4975015	9.706079	-0.197064	0.883035	-0.290395	0.005747	0.076652	-22.286957	-84.736273	166.735250
04509	4975040	9.728114	-0.190212	0.885729	-0.288020	0.007373	0.074387	-22.429193	-84.732084	166.836637
04510	4975065	9.719951	-0.146138	0.869941	-0.293413	0.007761	0.078213	-22.577261	-84.727610	166.943108
04511	4975090	9.717321	-0.114406	0.840794	-0.295220	0.012222	0.077057	-22.721048	-84.722586	167.045019
04512	4975115	9.740741	-0.104769	0.840850	-0.300206	0.012141	0.075556	-22.863606	-84.717564	167.144903
04513	4975140	9.771056	-0.102028	0.835564	-0.307070	0.018494	0.075942	-23.003243	-84.711728	167.240945
04514	4975165	9.783506	-0.079997	0.828962	-0.300348	0.016427	0.075112	-23.141734	-84.706190	167.336802
04515	4975190	9.790354	-0.103356	0.828934	-0.296833	0.014853	0.072919	-23.277323	-84.700961	167.430252
04516	4975215	9.802740	-0.100616	0.832932	-0.301380	0.020511	0.074401	-23.412335	-84.694817	167.522400
04517	4975240	9.820617	-0.118492	0.828914	-0.298226	0.017989	0.072716	-23.545441	-84.689147	167.613158
04520	4975265	9.793044	-0.121312	0.843470	-0.292267	0.017586	0.068192	-23.671325	-84.683771	167.697520
04521	4975290	9.779235	-0.104856	0.867429	-0.287522	0.016959	0.069563	-23.798636	-84.678381	167.783999
04522	4975315	9.753004	-0.140652	0.872619	-0.278746	0.018294	0.069629	-23.924078	-84.672728	167.869801
04523	4975340	9.778901	-0.238482	0.920126	-0.271799	0.017092	0.066893	-24.044877	-84.667441	167.952003
04524	4975365	9.755266	-0.307438	0.977016	-0.245076	0.009720	0.060317	-24.157071	-84.663487	168.029407
04525	4975390	9.722129	-0.321277	0.996903	-0.227571	0.005350	0.048465	-24.252806	-84.660787	168.092800
04526	4975415	9.679365	-0.335076	1.020708	-0.203086	-0.000186	0.044286	-24.342945	-84.658979	168.154038
04527	4975440	9.722246	-0.278551	0.977113	-0.191239	-0.001241	0.034791	-24.418432	-84.657929	168.202322
04528	4975465	9.748771	-0.124384	0.928437	-0.202270	-0.011632	0.036049	-24.503824	-84.658153	168.258967
04529	4975490	9.771076	-0.010065	0.879694	-0.230896	-0.014316	0.045855	-24.608694	-84.658134	168.331057
04530	4975515	9.794712	0.095932	0.852196	-0.258778	-0.011411	0.049190	-24.720652	-84.657459	168.406206
04531	4975540	9.783732	0.106952	0.846855	-0.280511	-0.013968	0.059743	-24.851700	-84.656534	168.497450
04532	4975565	9.750598	0.042386	0.836049	-0.286619	-0.013602	0.062358	-24.986977	-84.655384	168.592063
04533	4975590	9.749168	-0.038678	0.814505	-0.281370	-0.008519	0.060682	-25.115829	-84.653656	168.680978
04534	4975615	9.747745	-0.070281	0.813063	-0.275432	-0.006187	0.058824	-25.239951	-84.651654	168.765958
04535	4975640	9.722885	-0.106048	0.816928	-0.271387	-0.004543	0.058028	-25.360956	-84.649538	168.848430
04536	4975665	9.728317	-0.121286	0.842099	-0.259110	-0.000848	0.054249	-25.472479	-84.647160	168.923143
04537	4975690	9.703524	-0.128128	0.843402	-0.257887	0.002627	0.047973	-25.572800	-84.644707	168.986782
04538	4975715	9.733772	-0.124132	0.864680	-0.250630	0.004247	0.049682	-25.673553	-84.641863	169.051868
04539	4975740	9.735078	-0.147557	0.879260	-0.242810	0.013128	0.049545	-25.766758	-84.637937	169.110529
04540	4975765	9.718463	-0.161402	0.907061	-0.243649	0.010726	0.043383	-25.853110	-84.634697	169.162188
04541	4975790	9.718500	-0.133904	0.909828	-0.239877	0.015505	0.046392	-25.939779	-84.630645	169.214708
04542	4975815	9.706088	-0.095514	0.933865	-0.252777	0.013553	0.047243	-26.030905	-84.626718	169.269825
04543	4975840	9.732244	-0.074945	0.955178	-0.260125	0.013398	0.044838	-26.119548	-84.623020	169.321415
04544	4975865	9.730886	-0.058470	0.956577	-0.265099	0.013322	0.051717	-26.218246	-84.618889	169.382389
04545	4975890	9.745889	-0.102594	0.988309	-0.267409	0.009046	0.056271	-26.326235	-84.615008	169.452362
04546	4975915	9.769266	-0.120478	0.992267	-0.271091	0.008559	0.057325	-26.436606	-84.611045	169.524187
04547	4975940	9.749832	-0.160495	1.029345	-0.269651	0.003125	0.057910	-26.550894	-84.607794	169.600167
04548	4975965	9.737352	-0.204548	1.041112	-0.269833	0.001568	0.048266	-26.653079	-84.605346	169.663964
04549	4975990	9.722173	-0.203202	1.049102	-0.267376	-0.000276	0.048982	-26.757062	-84.603078	169.729921
04550	4976015	9.726267	-0.201895	1.067675	-0.268804	-0.004651	0.051577	-26.867883	-84.601124	169.802539
04551	4976040	9.768823	-0.235027	1.099519	-0.252353	-0.007756	0.046253	-26.971025	-84.599965	169.869812
04552	4976065	9.764657	-0.243307	1.114103	-0.247821	-0.009225	0.050859	-27.080708	-84.598682	169.944308
04553	4976090	9.782439	-0.283302	1.140532	-0.241706	-0.009826	0.041643	-27.177466	-84.598065	170.006702
04554	4976115	9.796177	-0.275091	1.153873	-0.235082	-0.013031	0.041698	-27.275735	-84.597776	170.071575
04555	4976140	9.808555	-0.288867	1.152485	-0.232919	-0.015087	0.037210	-27.368900	-84.598100	170.131623
04556	4976165	9.796198	-0.276500	1.151199	-0.229953	-0.016797	0.030445	-27.453746	-84.599078	170.183742
04557	4976190	9.785171	-0.312154	1.132457	-0.233682	-0.014079	0.032318	-27.539765	-84.599580	170.236503
04558	4976215	9.720467	-0.308007	1.120531	-0.232458	-0.011797	0.031115	-27.622568	-84.599797	170.286229
04559	4976240	9.742490	-0.310756	1.124492	-0.242297	-0.008255	0.035730	-27.710321	-84.599319	170.339492
04560	4976265	9.782414	-0.324525	1.120473	-0.241402	-0.004606	0.035864	-27.795537	-84.598362	170.390335
04561	4976290	9.796333	-0.322910	1.067338	-0.232387	-0.004683	0.031747	-27.873979	-84.597683	170.435671
04562	4976315	9.760458	-0.371028	1.065853	-0.226627	-0.000922	0.027594	-27.943502	-84.596732	170.472906
04563	4976340	9.760510	-0.361380	1.049921	-0.221144	0.000107	0.028725	-28.012856	-84.595639	170.510731
04564	4976365	9.717925	-0.335135	1.024755	-0.224234	0.003967	0.026089	-28.076361	-84.594232	170.542237
04565	4976390	9.710983	-0.346213	1.039317	-0.215705	0.008881	0.033830	-28.145444	-84.591678	170.580573
04566	4976415	9.730220	-0.350375	1.051270	-0.213768	0.004166	0.027442	-28.209188	-84.590078	170.613860
04567	4976440	9.748134	-0.370944	1.037910	-0.215551	-0.001384	0.024007	-28.272424	-84.589476	170.646345
04568	4976465	9.734320	-0.401200	1.036478	-0.202400	-0.005330	0.026017	-28.339272	-84.589233	170.684351
04569	4976490	9.702637	-0.402557	1.036456	-0.202085	-0.015000	0.021581	-28.407122	-84.590506	170.723409
04570	4976515	9.653069	-0.386059	1.044464	-0.191291	-0.013126	0.019759	-28.469800	-84.591593	170.758865
04571	4976540	9.628257	-0.403953	1.041730	-0.189704	-0.019635	0.021107	-28.538645	-84.593473	170.800702
04572	4976565	9.614604	-0.392794	1.003222	-0.185789	-0.027800	0.023176	-28.615633	-84.596234	170.851284
04573	4976590	9.577553	-0.356916	0.967449	-0.188498	-0.032766	0.024554	-28.698518	-84.599518	170.907398
04574	4976615	9.579048	-0.338893	0.932967	-0.193125	-0.036003	0.021918	-28.781123	-84.603311	170.962611
04575	4976640	9.562726	-0.253509	0.900050	-0.194982	-0.038055	0.017397	-28.859471	-84.607737	171.013234
04576	4976665	9.564181	-0.238281	0.876168	-0.200234	-0.037065	0.031003	-28.956034	-84.611090	171.081397
04577	4976690	9.571084	-0.232785	0.873552	-0.202239	-0.037113	0.027810	-29.048780	-84.614660	171.145437
04578	4976715	9.597210	-0.272607	0.864128	-0.206551	-0.034535	0.028539	-29.141406	-84.617777	171.208788
04579	4976740	9.621948	-0.312526	0.867978	-0.200275	-0.041763	0.025104	-29.233933	-84.622098	171.272891
04580	4976765	9.577721	-0.352541	0.903695	-0.200215	-0.042981	0.029166	-29.332878	-84.626277	171.343447
04581	4976790	9.602539	-0.340163	0.902419	-0.193587	-0.051333	0.027449	-29.434979	-84.631607	171.418127
04582	4976815	9.621599	-0.400846	0.952709	-0.187072	-0.054635	0.029409	-29.541493	-84.637127	171.498233
04583	4976840	9.629748	-0.405145	0.996548	-0.195289	-0.058128	0.030300	-29.653112	-84.643076	171.582226
04584	4976865	9.628350	-0.413414	0.997852	-0.191017	-0.065683	0.030401	-29.770204	-84.649942	171.672331
04585	4976890	9.636597	-0.398349	1.015167	-0.199987	-0.066559	0.030777	-29.890015	-84.656872	171.763874
04586	4976915	9.647647	-0.346157	1.032635	-0.219306	-0.073494	0.031585	-30.019335	-84.664515	171.862250
04587	4976940	9.640747	-0.307736	1.059335	-0.242178	-0.076884	0.033945	-30.157935	-84.672459	171.966593
04588	4976965	9.642128	-0.296766	1.066011	-0.259757	-0.079070	0.031649	-30.298062	-84.680816	172.069938
04589	4976990	9.640789	-0.281634	1.062058	-0.262126	-0.079483	0.029601	-30.436513	-84.689349	172.171258
04590	4977015	9.651774	-0.296769	1.066038	-0.268355	-0.079966	0.030886	-30.578380	-84.697752	172.275185
04591	4977040	9.670686	-0.411193	1.141398	-0.252761	-0.079125	0.036596	-30.725276	-84.705683	172.386330
04592	4977065	9.605487	-0.641069	1.203027	-0.217100	-0.084078	0.022213	-30.852259	-84.715253	172.482606
04593	4977090	9.596084	-0.605021	1.124742	-0.196120	-0.083885	0.016095	-30.968344	-84.725232	172.570954
04594	4977115	9.669683	-0.391493	1.007269	-0.199613	-0.081834	0.007568	-31.072356	-84.735497	172.646754
04595	4977140	9.668843	-0.217726	0.890955	-0.231585	-0.068063	0.001971	-31.162711	-84.744551	172.704158
04596	4977165	9.667746	-0.118536	0.835477	-0.261988	-0.050189	0.008956	-31.252536	-84.750889	172.756657
04597	4977190	9.680181	-0.077308	0.843557	-0.268742	-0.035149	0.016506	-31.341366	-84.754816	172.807184
04598	4977215	9.692565	-0.084171	0.843571	-0.256929	-0.023024	0.027569	-31.433497	-84.756354	172.862815
04599	4977240	9.758643	-0.139074	0.818197	-0.232868	-0.014462	0.032640	-31.521973	-84.756533	172.918147
04600	4977265	9.787480	-0.229766	0.800612	-0.207783	-0.006612	0.029469	-31.596227	-84.755984	172.962805
04601	4977290	9.750247	-0.277857	0.791126	-0.181663	-0.001708	0.022304	-31.653194	-84.755371	172.993861
04602	4977315	9.761214	-0.291689	0.809695	-0.168312	0.007147	0.013079	-31.688734	-84.754297	173.005416
04603	4977340	9.765310	-0.275269	0.830993	-0.152461	0.000645	0.011694	-31.725489	-84.754191	173.020375
04604	4977365	9.752933	-0.253280	0.837681	-0.150029	0.000733	0.005367	-31.753428	-84.754551	173.026832
04605	4977390	9.721275	-0.239552	0.839078	-0.150475	-0.001758	0.001298	-31.778082	-84.755521	173.029925
04606	4977415	9.718466	-0.221777	0.869643	-0.151773	-0.006394	0.003576	-31.809749	-84.756810	173.039977
04607	4977440	9.675657	-0.245289	0.905426	-0.165339	-0.016889	0.006521	-31.855934	-84.759226	173.062553
04608	4977465	9.654907	-0.281094	0.921226	-0.164169	-0.025788	0.006407	-31.909179	-84.762731	173.092387
04609	4977490	9.661736	-0.283943	0.941177	-0.177045	-0.035113	0.010243	-31.977132	-84.767077	173.135139
04610	4977515	9.650678	-0.305948	0.945065	-0.184043	-0.043750	0.009878	-32.052839	-84.772421	173.184781
04611	4977540	9.679627	-0.301766	0.935788	-0.198989	-0.049345	0.010784	-32.136711	-84.778442	173.240361
04612	4977565	9.691988	-0.278502	0.966409	-0.202303	-0.060864	0.010256	-32.230154	-84.785891	173.305074
04613	4977590	9.700318	-0.257815	0.947932	-0.210823	-0.063902	0.007467	-32.323891	-84.793913	173.368857
04614	4977615	9.679652	-0.277046	0.939887	-0.212528	-0.065403	0.013672	-32.427581	-84.801556	173.442507
04615	4977640	9.694830	-0.279741	0.927920	-0.211047	-0.067621	0.011146	-32.529891	-84.809724	173.514865
04616	4977665	9.689326	-0.298945	0.911912	-0.213818	-0.066482	0.010173	-32.630608	-84.817817	173.585223
04617	4977690	9.671378	-0.318222	0.917169	-0.205092	-0.067514	0.014429	-32.736888	-84.825694	173.662421
04618	4977715	9.683716	-0.336123	0.929074	-0.202532	-0.064039	0.007719	-32.831096	-84.833587	173.727992
04620	4977740	9.682326	-0.356731	0.925013	-0.206178	-0.063595	0.007182	-32.925042	-84.841532	173.792648
04622	4977765	9.752529	-0.365044	0.932976	-0.204128	-0.062110	0.004029	-33.013451	-84.849536	173.852037
04623	4977790	9.769076	-0.345795	0.935744	-0.201757	-0.060831	0.000113	-33.095416	-84.857684	173.905297
04624	4977815	9.762190	-0.321126	0.947729	-0.201501	-0.064458	0.000949	-33.181753	-84.866120	173.963118
04625	4977840	9.727813	-0.325136	0.923844	-0.205337	-0.066553	0.010240	-33.283203	-84.874144	174.035426
04626	4977865	9.705781	-0.342960	0.917090	-0.204890	-0.057997	0.005223	-33.370634	-84.881527	174.093722
04627	4977890	9.693381	-0.363563	0.907733	-0.204287	-0.056614	0.003830	-33.455108	-84.888848	174.149134
04628	4977915	9.682387	-0.347081	0.907740	-0.209318	-0.059712	0.005761	-33.545728	-84.896304	174.210135
04629	4977940	9.675404	-0.385619	0.923582	-0.210671	-0.060405	0.002578	-33.633224	-84.904161	174.267663
04630	4977965	9.660229	-0.391163	0.931526	-0.213593	-0.054961	0.014605	-33.732595	-84.910405	174.336692
04631	4977990	9.669899	-0.395249	0.918213	-0.216162	-0.060412	0.009449	-33.830528	-84.917698	174.403907
04632	4978015	9.649273	-0.408918	0.898221	-0.217924	-0.063205	0.006898	-33.927933	-84.925442	174.470485
04633	4978040	9.632785	-0.397857	0.886305	-0.215939	-0.065182	0.011484	-34.033350	-84.933118	174.545244
04634	4978065	9.641101	-0.379932	0.877051	-0.223349	-0.071958	0.011306	-34.146013	-84.941600	174.626210
04635	4978090	9.616317	-0.385423	0.867744	-0.216587	-0.070496	0.007358	-34.251408	-84.950212	174.700852
04636	4978115	9.623210	-0.381254	0.867780	-0.213559	-0.072619	0.006874	-34.357841	-84.959028	174.777124
04637	4978140	9.602575	-0.400486	0.846442	-0.206973	-0.071600	0.011238	-34.468699	-84.967432	174.858630
04638	4978165	9.608132	-0.381214	0.842511	-0.197749	-0.068679	0.014484	-34.580210	-84.975215	174.942117
04639	4978190	9.594373	-0.345470	0.857229	-0.193140	-0.069980	0.013633	-34.691428	-84.983205	175.025971
04640	4978215	9.608109	-0.355110	0.862528	-0.183122	-0.069048	0.016630	-34.804524	-84.990752	175.113310
04641	4978240	9.599698	-0.410259	0.894214	-0.170800	-0.075522	0.012925	-34.917398	-84.999423	175.202037
04642	4978265	9.516753	-0.513638	0.961587	-0.137976	-0.078437	0.005639	-35.018870	-85.009019	175.284037
04643	4978290	9.518216	-0.517607	0.924368	-0.110754	-0.080533	0.008838	-35.123075	-85.018586	175.372693
04644	4978315	9.507592	-0.456653	0.801018	-0.115536	-0.082491	0.006132	-35.226391	-85.028515	175.459932
04645	4978340	9.521789	-0.335219	0.699100	-0.141324	-0.066867	-0.003155	-35.306550	-85.037449	175.520054
04646	4978365	9.541346	-0.200358	0.662411	-0.174432	-0.058232	-0.002407	-35.384455	-85.045304	175.573152
04647	4978390	9.538909	-0.047554	0.625703	-0.203580	-0.048168	0.000715	-35.461295	-85.051719	175.620991
04648	4978415	9.512952	0.020024	0.583361	-0.226790	-0.036693	0.008388	-35.540745	-85.056079	175.668282
04649	4978440	9.544721	0.064042	0.567596	-0.232595	-0.027166	0.019379	-35.626934	-85.058480	175.721331
04650	4978465	9.616361	0.087421	0.570383	-0.248307	-0.017478	0.027500	-35.717002	-85.059069	175.776015
04651	4978490	9.667319	0.101123	0.575775	-0.254996	-0.011037	0.033347	-35.809663	-85.058412	175.832340
04652	4978515	9.636983	0.044820	0.558270	-0.262004	-0.009051	0.045408	-35.917355	-85.056432	175.902925
04653	4978540	9.602483	-0.003274	0.559447	-0.267907	-0.003554	0.044659	-36.019678	-85.053939	175.967092
04654	4978565	9.624428	-0.019922	0.588607	-0.278510	-0.001982	0.038101	-36.113136	-85.051807	176.020836
04655	4978590	9.663002	-0.015781	0.586036	-0.286116	0.001702	0.035752	-36.200889	-85.049440	176.067761
04656	4978615	9.669949	0.074879	0.614197	-0.303192	0.002654	0.038162	-36.293071	-85.046684	176.116867
04657	4978640	9.656103	0.103575	0.662109	-0.305237	0.003828	0.039284	-36.386042	-85.043759	176.166281
04658	4978665	9.657370	0.096562	0.701934	-0.307713	-0.006026	0.042573	-36.493320	-85.041682	176.229699
04659	4978690	9.644954	0.126653	0.729938	-0.316404	-0.009440	0.048281	-36.612693	-85.039501	176.304010
04660	4978715	9.637987	0.103290	0.745785	-0.317651	-0.017285	0.057986	-36.752464	-85.037308	176.398819
04661	4978740	9.632343	0.055013	0.774852	-0.322670	-0.032277	0.060311	-36.911023	-85.036681	176.511562
04662	4978765	9.614297	0.010913	0.805256	-0.322878	-0.036833	0.063737	-37.078612	-85.036252	176.633339
04663	4978790	9.636220	-0.030439	0.826401	-0.326748	-0.039558	0.060914	-37.245743	-85.036347	176.754099
04664	4978815	9.618254	-0.056585	0.839595	-0.331110	-0.050795	0.058036	-37.420683	-85.037875	176.882289
04665	4978840	9.612698	-0.075917	0.848811	-0.328559	-0.061992	0.058191	-37.607129	-85.040692	177.022176
04666	4978865	9.616865	-0.077181	0.832883	-0.328536	-0.069021	0.054772	-37.796404	-85.044566	177.164906
04667	4978890	9.637481	-0.111597	0.827475	-0.322238	-0.075334	0.048417	-37.983171	-85.049673	177.306023
04668	4978915	9.608520	-0.132206	0.830055	-0.320719	-0.071451	0.047472	-38.164518	-85.054320	177.442148
04669	4978940	9.651225	-0.152776	0.815389	-0.315148	-0.072797	0.047772	-38.347477	-85.059120	177.580460
04670	4978965	9.630590	-0.143159	0.810074	-0.312667	-0.072673	0.047474	-38.529877	-85.063895	177.718567
04671	4978990	9.666380	-0.141795	0.818096	-0.305931	-0.074591	0.048229	-38.714590	-85.068778	177.859962
04672	4979015	9.665040	-0.137628	0.806138	-0.297773	-0.071026	0.047719	-38.893707	-85.073207	177.997156
04673	4979040	9.667800	-0.130756	0.806164	-0.283042	-0.071241	0.047517	-39.071333	-85.077705	178.134727
04674	4979065	9.648538	-0.144474	0.792822	-0.274758	-0.068343	0.045486	-39.242388	-85.082030	178.266894
04675	4979090	9.684370	-0.129293	0.790263	-0.269581	-0.065278	0.045334	-39.409531	-85.085994	178.395876
04676	4979115	9.678945	-0.120993	0.761045	-0.266628	-0.067021	0.044662	-39.577073	-85.090118	178.525937
04677	4979140	9.687185	-0.153891	0.748962	-0.266469	-0.059262	0.041735	-39.733215	-85.093685	178.644326
04678	4979165	9.694119	-0.149706	0.733078	-0.265102	-0.055425	0.037746	-39.880141	-85.097168	178.753659
04679	4979190	9.694154	-0.174397	0.705046	-0.268720	-0.050208	0.035554	-40.019357	-85.100257	178.854733
04680	4979215	9.699625	-0.200512	0.703635	-0.263293	-0.050925	0.035155	-40.157779	-85.103379	178.956055
04681	4979240	9.690057	-0.218244	0.663727	-0.263715	-0.047229	0.038132	-40.296648	-85.105862	179.057500
04682	4979265	9.670814	-0.208557	0.650486	-0.266723	-0.043803	0.036326	-40.430052	-85.108118	179.153026
04683	4979290	9.674925	-0.214114	0.661073	-0.260796	-0.040765	0.034593	-40.557199	-85.110185	179.243125
04684	4979315	9.662455	-0.212837	0.690320	-0.256585	-0.037588	0.033543	-40.678581	-85.111928	179.328314
04685	4979340	9.655630	-0.210000	0.669047	-0.255637	-0.037667	0.032727	-40.799405	-85.113801	179.412809
04686	4979365	9.625408	-0.190659	0.651828	-0.261550	-0.035180	0.031979	-40.917478	-85.115460	179.493691
04687	4979390	9.614437	-0.183725	0.635909	-0.258774	-0.030339	0.030917	-41.028550	-85.116681	179.567946
04688	4979415	9.597891	-0.181037	0.645209	-0.258970	-0.035779	0.026794	-41.140014	-85.118806	179.642846
04689	4979440	9.624049	-0.150885	0.666565	-0.266604	-0.031497	0.029716	-41.252078	-85.120240	179.716971
04690	4979465	9.604875	-0.117746	0.642752	-0.268164	-0.033014	0.030908	-41.367604	-85.121713	179.794346
04691	4979490	9.601075	0.109111	0.643482	-0.276391	-0.030263	0.042138	-41.495433	-85.121811	179.882885
04692	4979515	9.541697	0.048527	0.669854	-0.292622	-0.024064	0.064659	-41.646433	-85.119030	179.992638
04693	4979540	9.586908	-0.078065	0.694705	-0.299810	-0.022900	0.068855	-41.802761	-85.115756	-179.893585
04694	4979565	9.600399	-0.207456	0.730115	-0.308324	-0.023215	0.064602	-41.955180	-85.112896	-179.784956
04695	4979590	9.618102	-0.285951	0.765756	-0.306086	-0.035231	0.049335	-42.101635	-85.112754	-179.681990
04696	4979615	9.616716	-0.242075	0.788484	-0.309150	-0.042498	0.034401	-42.237647	-85.114743	-179.589645
04697	4979640	9.613984	-0.203632	0.809858	-0.302377	-0.052331	0.023992	-42.371518	-85.118814	-179.498776
04698	4979665	9.615491	-0.133444	0.795506	-0.291736	-0.066525	0.017613	-42.512250	-85.124983	-179.399492
04699	4979690	9.625118	-0.101925	0.822147	-0.282213	-0.075619	0.009640	-42.652413	-85.132864	-179.299412
04700	4979715	9.636118	-0.085507	0.836842	-0.277871	-0.088738	0.013807	-42.811949	-85.141643	-179.178951
04701	4979740	9.651229	-0.121226	0.831427	-0.283504	-0.097056	0.017200	-42.987126	-85.150989	-179.043918
04702	4979765	9.641494	-0.139191	0.859236	-0.286515	-0.110140	0.019154	-43.180885	-85.161476	-178.890672
04703	4979790	9.618014	-0.180475	0.863098	-0.286256	-0.115173	0.024681	-43.388031	-85.171899	-178.723956
04704	4979815	9.591728	-0.242423	0.876162	-0.283250	-0.113890	0.021209	-43.589173	-85.182427	-178.562507
04705	4979840	9.597151	-0.276833	0.888029	-0.280985	-0.121833	0.016665	-43.795160	-85.194233	-178.396203
04706	4979865	9.666007	-0.272755	0.893348	-0.279827	-0.131775	0.014402	-44.010907	-85.207239	-178.219940
04707	4979890	9.667419	-0.230120	0.904148	-0.288174	-0.138220	0.010344	-44.231631	-85.221255	-178.039886
04708	4979915	9.704658	-0.195759	0.901606	-0.291531	-0.141342	0.006768	-44.452736	-85.235838	-177.859593
04709	4979940	9.685364	-0.179342	0.912290	-0.291412	-0.144869	0.006266	-44.679358	-85.250826	-177.674094
04710	4979965	9.704634	-0.171102	0.925624	-0.285147	-0.157626	0.005248	-44.920710	-85.267151	-177.472917
04711	4979990	9.714186	-0.209639	0.936120	-0.282957	-0.163278	0.003934	-45.168622	-85.284109	-177.264849
04712	4980015	9.765131	-0.195933	0.950826	-0.273322	-0.171691	0.002690	-45.425015	-85.301914	-177.046533
04713	4980040	9.772049	-0.201390	0.932225	-0.261401	-0.167184	-0.002733	-45.669926	-85.319795	-176.838388
04714	4980065	9.774668	-0.253730	0.954618	-0.264767	-0.170538	-0.000605	-45.923884	-85.337718	-176.621654
04715	4980090	9.791198	-0.260607	0.947982	-0.259969	-0.172353	-0.002022	-46.179543	-85.355889	-176.402531
04716	4980115	9.813104	-0.301958	0.977088	-0.258723	-0.172217	-0.005308	-46.431950	-85.374256	-176.186122
04717	4980140	9.864065	-0.304685	0.971783	-0.248645	-0.172091	-0.004849	-46.685924	-85.392538	-175.967074
04718	4980165	9.916329	-0.337750	0.981014	-0.258254	-0.171624	-0.008729	-46.937818	-85.411100	-175.751498
04719	4980190	9.938338	-0.348775	0.983629	-0.256975	-0.176911	-0.011188	-47.195376	-85.430360	-175.530062
04720	4980215	9.985126	-0.381784	0.979549	-0.260551	-0.181016	-0.012353	-47.458692	-85.450008	-175.302981
04721	4980240	10.027703	-0.420376	1.003388	-0.258404	-0.183369	-0.019503	-47.719074	-85.470609	-175.078930
04724	4980265	10.038675	-0.428669	1.017976	-0.262903	-0.183032	-0.023028	-47.977566	-85.491471	-174.857426
04725	4980290	10.033199	-0.456058	0.986019	-0.266956	-0.182955	-0.026362	-48.234708	-85.512602	-174.637867
04726	4980315	10.019384	-0.471253	0.995246	-0.263463	-0.178671	-0.034270	-48.477246	-85.534046	-174.432059
04727	4980340	10.042776	-0.491858	0.993877	-0.260903	-0.179130	-0.026760	-48.732202	-85.554707	-174.213835
04728	4980365	10.060651	-0.453470	1.021901	-0.271064	-0.178058	-0.020622	-48.996782	-85.574528	-173.987424
04729	4980390	10.079877	-0.468633	1.039156	-0.274821	-0.176248	-0.023824	-49.257667	-85.594446	-173.765264
04730	4980415	10.114402	-0.435594	1.018003	-0.285067	-0.175585	-0.027522	-49.515873	-85.614575	-173.546853
04731	4980440	10.122740	-0.454693	0.982066	-0.289507	-0.172421	-0.025846	-49.775327	-85.634203	-173.328252
04732	4980465	10.140670	-0.449188	0.968820	-0.305007	-0.173147	-0.020571	-50.046593	-85.653242	-173.100034
04733	4980490	10.154407	-0.467018	0.970111	-0.305650	-0.170687	-0.030860	-50.304118	-85.673107	-172.885697
04734	4980515	10.166817	-0.451945	0.975472	-0.306322	-0.165062	-0.031377	-50.554057	-85.692393	-172.678640
04735	4980540	10.162569	-0.460337	1.016608	-0.311962	-0.163922	-0.032753	-50.804482	-85.711711	-172.472340
04736	4980565	10.157151	-0.456084	0.983432	-0.302354	-0.164098	-0.034837	-51.053337	-85.731209	-172.266240
04737	4980590	10.124149	-0.443663	0.970150	-0.295395	-0.161706	-0.036688	-51.297445	-85.750632	-172.063904
04738	4980615	10.075999	-0.435327	0.956889	-0.294180	-0.162692	-0.038013	-51.542295	-85.770176	-171.860214
04739	4980640	10.045698	-0.471012	0.938129	-0.288603	-0.158787	-0.041337	-51.779484	-85.789734	-171.663852
04740	4980665	10.038841	-0.483306	0.919489	-0.283763	-0.157012	-0.045873	-52.009804	-85.809588	-171.473687
04741	4980690	10.038876	-0.428401	0.936920	-0.275646	-0.155386	-0.047711	-52.236220	-85.829450	-171.286275
04742	4980715	10.021064	-0.395304	0.919760	-0.276132	-0.154614	-0.043464	-52.467494	-85.848658	-171.093611
04743	4980740	10.030701	-0.404917	0.911803	-0.267652	-0.161184	-0.041552	-52.713271	-85.868212	-170.885649
04744	4980765	10.018363	-0.415793	0.886475	-0.269866	-0.162125	-0.048421	-52.954765	-85.888568	-170.682304
04745	4980790	10.008779	-0.406100	0.869231	-0.272192	-0.160594	-0.048763	-53.195939	-85.908769	-170.479620
04746	4980815	10.008886	-0.374420	0.844076	-0.271563	-0.163972	-0.056177	-53.434633	-85.930000	-170.278867
04747	4980840	10.007653	-0.341227	0.801699	-0.269869	-0.166689	-0.049564	-53.688901	-85.950689	-170.062733
04748	4980865	10.006324	-0.348008	0.777741	-0.265005	-0.167927	-0.042541	-53.955324	-85.970600	-169.833720
04749	4980890	9.978671	-0.363309	0.816196	-0.271314	-0.168379	-0.043228	-54.225034	-85.990553	-169.602323
04750	4980915	9.964996	-0.398811	0.756272	-0.271931	-0.167868	-0.039169	-54.500104	-86.009865	-169.365167
04751	4980940	9.987005	-0.409821	0.757602	-0.270045	-0.172947	-0.044610	-54.780697	-86.030202	-169.122690
04752	4980965	9.981518	-0.440006	0.733592	-0.259584	-0.173278	-0.044529	-55.063133	-86.050473	-168.876870
04753	4980990	9.971925	-0.463226	0.701607	-0.258185	-0.169639	-0.044774	-55.341556	-86.070393	-168.634877
04754	4981015	9.960989	-0.469968	0.665728	-0.247954	-0.162689	-0.049397	-55.602381	-86.090167	-168.408570
04755	4981040	9.945900	-0.491831	0.629764	-0.248659	-0.164209	-0.052448	-55.866108	-86.110402	-168.179952
04756	4981065	9.944512	-0.517946	0.616405	-0.237487	-0.152731	-0.049831	-56.113714	-86.129337	-167.965892
04757	4981090	9.959683	-0.515148	0.608409	-0.226805	-0.150557	-0.049050	-56.359122	-86.147943	-167.752507
04758	4981115	9.939035	-0.527498	0.597760	-0.214049	-0.145788	-0.053968	-56.589292	-86.166653	-167.552072
04759	4981140	9.906082	-0.523185	0.561872	-0.201245	-0.144114	-0.051896	-56.820494	-86.184975	-167.349264
04760	4981165	9.907465	-0.519069	0.560564	-0.180605	-0.139257	-0.058660	-57.034084	-86.203677	-167.161149
04761	4981190	9.928128	-0.546484	0.540548	-0.169656	-0.133334	-0.063655	-57.231417	-86.222475	-166.987758
04762	4981215	9.926815	-0.562921	0.505930	-0.153030	-0.131588	-0.069110	-57.417221	-86.241710	-166.823040
04763	4981240	9.891063	-0.557281	0.483358	-0.145236	-0.125346	-0.061949	-57.601954	-86.259611	-166.658779
04764	4981265	9.869033	-0.562798	0.484651	-0.131987	-0.124399	-0.061657	-57.785041	-86.277370	-166.494269
04765	4981290	9.924095	-0.565552	0.487347	-0.118864	-0.126217	-0.066434	-57.965709	-86.295813	-166.330302
04766	4981315	9.929562	-0.590346	0.491261	-0.114110	-0.127217	-0.064428	-58.150240	-86.314007	-166.161285
04767	4981340	9.925436	-0.571099	0.499252	-0.107037	-0.126624	-0.070974	-58.328124	-86.332966	-165.998418
04768	4981365	9.906148	-0.582103	0.495268	-0.098316	-0.131309	-0.067158	-58.519977	-86.351777	-165.820305
04769	4981390	9.922802	-0.580550	0.448739	-0.090985	-0.129730	-0.063674	-58.713730	-86.370005	-165.639239
04770	4981415	9.903481	-0.621780	0.439303	-0.085421	-0.128107	-0.065728	-58.901552	-86.388280	-165.462820
04771	4981440	9.874515	-0.630065	0.453885	-0.075296	-0.126897	-0.065078	-59.089632	-86.406396	-165.285194
04772	4981465	9.851216	-0.631256	0.404740	-0.068642	-0.123332	-0.069535	-59.266362	-86.424762	-165.117989
04773	4981490	9.860835	-0.645032	0.408636	-0.061131	-0.118923	-0.069541	-59.435031	-86.442775	-164.957785
04774	4981515	9.866302	-0.683526	0.399226	-0.054489	-0.121896	-0.066632	-59.612266	-86.460570	-164.787549
04775	4981540	9.875868	-0.731614	0.401740	-0.037444	-0.117084	-0.076592	-59.768965	-86.479263	-164.635946
04776	4981565	9.908917	-0.731677	0.407067	-0.019783	-0.118624	-0.079687	-59.924259	-86.498425	-164.483219
04777	4981590	9.910175	-0.775726	0.424200	-0.008899	-0.114830	-0.081570	-60.069732	-86.517524	-164.338772
04778	4981615	9.866135	-0.760620	0.425547	0.004466	-0.114909	-0.084959	-60.209524	-86.536982	-164.197605
04779	4981640	9.885400	-0.737308	0.444212	0.013594	-0.121450	-0.081517	-60.368722	-86.556499	-164.036186
04780	4981665	9.889423	-0.749824	0.477421	0.021309	-0.121219	-0.074412	-60.536522	-86.575087	-163.865047
04781	4981690	9.904439	-0.796675	0.502481	0.029002	-0.128286	-0.075614	-60.718481	-86.594290	-163.678622
04782	4981715	9.901565	-0.838035	0.527602	0.038803	-0.133841	-0.074074	-60.913101	-86.613605	-163.477616
04783	4981740	9.878071	-0.876573	0.538064	0.036652	-0.140744	-0.077894	-61.122114	-86.633882	-163.263001
04784	4981765	9.857372	-0.913673	0.536623	0.041674	-0.155543	-0.078541	-61.364032	-86.655211	-163.014707
04785	4981790	9.789865	-0.912358	0.545869	0.041687	-0.158030	-0.081778	-61.610691	-86.677054	-162.761669
04786	4981815	9.758117	-0.964562	0.549677	0.036296	-0.163133	-0.081185	-61.871662	-86.699057	-162.494582
04787	4981840	9.731920	-1.011273	0.528268	0.050315	-0.169575	-0.086717	-62.143578	-86.722167	-162.215018
04788	4981865	9.726343	-1.022374	0.554790	0.052026	-0.175433	-0.084797	-62.434475	-86.745344	-161.916204
04789	4981890	9.680863	-1.040265	0.553379	0.063719	-0.177450	-0.085719	-62.731389	-86.768685	-161.609691
04790	4981915	9.661539	-1.095163	0.539914	0.077319	-0.177820	-0.091513	-63.023158	-86.792650	-161.305902
04791	4981940	9.690442	-1.104828	0.545188	0.094566	-0.184311	-0.100257	-63.323464	-86.818112	-160.991583
04792	4981965	9.734415	-1.143431	0.558376	0.105391	-0.191697	-0.101304	-63.643145	-86.844086	-160.656313
04793	4981990	9.739960	-1.158450	0.535759	0.128874	-0.200163	-0.100733	-63.985455	-86.870414	-160.295019
04794	4982015	9.746896	-1.178966	0.501146	0.149634	-0.205331	-0.105958	-64.335295	-86.897568	-159.922738
04795	4982040	9.704246	-1.199469	0.469139	0.168555	-0.210273	-0.109491	-64.698451	-86.925407	-159.534895
04796	4982065	9.702991	-1.223967	0.407981	0.191902	-0.213969	-0.114506	-65.068424	-86.953986	-159.136886
04797	4982090	9.729176	-1.254143	0.382632	0.206912	-0.214908	-0.120099	-65.439500	-86.983212	-158.735631
04798	4982115	9.729305	-1.196326	0.369563	0.224935	-0.216690	-0.126109	-65.811378	-87.013137	-158.330532
04799	4982140	9.708676	-1.241562	0.328208	0.255075	-0.215754	-0.133045	-66.178492	-87.043829	-157.926358
04800	4982165	9.668872	-1.222135	0.280385	0.273225	-0.219075	-0.127065	-66.566267	-87.073788	-157.498904
04801	4982190	9.653771	-1.241274	0.252444	0.277059	-0.216864	-0.128426	-66.954631	-87.103652	-157.070320
04802	4982215	9.609645	-1.267407	0.261610	0.293939	-0.207117	-0.133576	-67.315725	-87.133458	-156.666183
04803	4982240	9.568298	-1.314086	0.248182	0.311641	-0.206780	-0.134900	-67.681883	-87.163343	-156.254896
04804	4982265	9.591788	-1.320874	0.212253	0.339870	-0.208364	-0.139624	-68.051375	-87.193808	-155.836233
04805	4982290	9.620770	-1.363328	0.161687	0.365795	-0.202273	-0.144751	-68.403458	-87.224501	-155.431294
04806	4982315	9.620801	-1.366018	0.150999	0.383852	-0.206031	-0.150196	-68.763967	-87.255940	-155.014910
04807	4982340	9.598775	-1.379722	0.136333	0.411214	-0.207751	-0.159562	-69.126331	-87.288646	-154.593186
04808	4982365	9.586396	-1.394795	0.121675	0.429174	-0.210922	-0.160244	-69.504024	-87.321473	-154.153552
04809	4982390	9.546481	-1.383780	0.120366	0.432724	-0.213091	-0.159454	-69.898480	-87.354162	-153.696640
04810	4982415	9.451480	-1.405672	0.092317	0.431098	-0.207870	-0.152814	-70.293293	-87.385499	-153.239208
04811	4982440	9.377043	-1.434595	0.104155	0.417094	-0.207619	-0.149819	-70.704939	-87.416327	-152.767352
04812	4982465	9.292906	-1.464969	0.143864	0.394218	-0.204144	-0.142138	-71.127927	-87.445795	-152.287434
04813	4982490	9.234903	-1.542034	0.159502	0.368525	-0.197427	-0.135937	-71.550788	-87.473955	-151.811338
04814	4982515	9.259514	-1.617792	0.188497	0.356784	-0.191341	-0.132544	-71.967710	-87.501166	-151.342497
04815	4982540	9.285457	-1.682622	0.237462	0.346907	-0.190546	-0.123483	-72.404541	-87.527011	-150.855537
04816	4982565	9.316913	-1.751591	0.290421	0.353144	-0.188448	-0.128067	-72.838952	-87.553231	-150.370114
04817	4982590	9.329080	-1.813665	0.343348	0.344192	-0.180294	-0.123003	-73.263057	-87.578260	-149.896300
04818	4982615	9.448732	-1.857868	0.381803	0.351791	-0.187361	-0.120774	-73.718484	-87.603053	-149.389698
04819	4982640	9.567036	-1.907471	0.404306	0.369677	-0.185786	-0.121138	-74.178089	-87.627725	-148.876717
04820	4982665	9.599935	-1.926925	0.460057	0.391316	-0.185515	-0.118615	-74.646176	-87.651864	-148.352153
04821	4982690	9.535050	-1.876387	0.551859	0.413218	-0.182110	-0.123841	-75.105035	-87.676423	-147.833693
04822	4982715	9.530785	-1.835425	0.630385	0.440250	-0.189906	-0.125337	-75.593586	-87.701230	-147.281320
04823	4982740	9.631272	-1.771008	0.685162	0.476968	-0.194138	-0.135446	-76.096711	-87.727462	-146.709439
04826	4982765	9.821380	-1.669409	0.724139	0.512457	-0.199200	-0.133881	-76.626528	-87.753440	-146.105768
04827	4982790	10.043082	-1.614617	0.758973	0.551085	-0.201403	-0.125058	-77.179125	-87.778032	-145.473774
04828	4982815	10.316952	-1.612210	0.833552	0.586015	-0.202675	-0.114864	-77.749901	-87.800927	-144.818270
04829	4982840	10.544037	-1.606964	0.896128	0.607635	-0.213748	-0.114363	-78.374365	-87.823883	-144.106270
04830	4982865	10.863447	-1.578367	0.952188	0.628190	-0.231086	-0.101985	-79.083772	-87.845268	-143.306330
04831	4982890	11.103032	-1.583954	0.965594	0.645825	-0.241353	-0.095223	-79.849053	-87.865578	-142.447959
04832	4982915	11.271164	-1.533011	0.949935	0.655504	-0.262444	-0.093791	-80.707061	-87.885670	-141.495109
04833	4982940	11.374496	-1.517866	0.934151	0.658851	-0.268877	-0.088039	-81.612930	-87.904611	-140.494212
04834	4982965	11.510898	-1.475251	0.938342	0.666507	-0.267471	-0.092222	-82.527177	-87.923532	-139.483844
04835	4982990	11.568906	-1.395416	0.914741	0.678937	-0.257506	-0.088008	-83.419498	-87.941098	-138.493648
04836	4983015	11.677809	-1.337660	0.901704	0.683904	-0.245933	-0.080608	-84.280415	-87.956814	-137.533865
04837	4983040	11.732900	-1.303389	0.921825	0.691830	-0.222217	-0.069326	-85.065706	-87.970178	-136.648937
04838	4983065	11.748046	-1.219678	0.975207	0.706893	-0.204295	-0.055709	-85.791031	-87.980977	-135.821860
04839	4983090	11.753548	-1.177139	1.000629	0.713103	-0.188862	-0.038157	-86.465107	-87.988761	-135.045180
04840	4983115	11.663945	-1.112767	1.071157	0.716958	-0.176247	-0.032876	-87.090048	-87.995312	-134.316800
04841	4983140	11.528939	-1.075758	1.116420	0.712364	-0.157024	-0.018966	-87.647056	-87.999547	-133.657371
04842	4983165	11.433890	-1.055190	1.133673	0.706647	-0.141236	-0.008056	-88.143966	-88.001925	-133.058896
04843	4983190	11.329250	-1.038686	1.138988	0.708629	-0.133434	0.000831	-88.610640	-88.002824	-132.490394
04844	4983215	11.249303	-1.056598	1.152188	0.699598	-0.108959	0.006315	-88.975020	-88.002655	-132.025217
04845	4983240	11.125336	-1.059364	1.160059	0.695110	-0.092088	0.021426	-89.275246	-88.000255	-131.625200
04846	4983265	11.015139	-1.055266	1.177264	0.675064	-0.075910	0.027658	-89.511400	-87.996872	-131.292167
04847	4983290	10.875955	-1.102021	1.185008	0.658022	-0.060841	0.032900	-89.687522	-87.992682	-131.021645
04848	4983315	10.729777	-1.201112	1.207162	0.644332	-0.049424	0.042358	-89.814189	-87.987039	-130.802235
04849	4983340	10.635836	-1.314055	1.261192	0.614634	-0.038330	0.058036	-89.903109	-87.979198	-130.625185
04850	4983365	10.526785	-1.451675	1.279250	0.583337	-0.026713	0.074337	-89.948508	-87.969012	-130.496168
04851	4983390	10.427500	-1.509470	1.301586	0.553936	-0.025339	0.090598	-89.991680	-87.956493	-130.373593
04852	4983415	10.351590	-1.626369	1.298491	0.517768	-0.028066	0.105669	-90.045682	-87.941742	-130.245027
04853	4983440	10.230196	-1.766633	1.296631	0.473884	-0.025113	0.131778	-90.096814	-87.923317	-130.125958
04854	4983465	10.111589	-1.888980	1.297506	0.435537	-0.030719	0.154573	-90.173548	-87.901620	-129.986765
04855	4983490	10.009571	-2.034595	1.258416	0.393948	-0.038053	0.161162	-90.282240	-87.878967	-129.821553
04856	4983515	9.888254	-2.145904	1.244694	0.358555	-0.034885	0.181058	-90.376283	-87.853380	-129.675741
04857	4983540	9.777926	-2.265505	1.234911	0.303841	-0.041284	0.197633	-90.502973	-87.825477	-129.505427
04858	4983565	9.677366	-2.391744	1.172013	0.259362	-0.049187	0.208326	-90.661193	-87.796015	-129.309933
04859	4983590	9.603227	-2.431180	1.057569	0.222628	-0.054529	0.219776	-90.838963	-87.764882	-129.100136
04860	4983615	9.530274	-2.512083	0.990827	0.184770	-0.058572	0.236613	-91.026233	-87.731217	-128.885947
04861	4983640	9.484962	-2.577749	0.904183	0.146610	-0.067127	0.238980	-91.247374	-87.697243	-128.643633
04862	4983665	9.427269	-2.632393	0.807029	0.097282	-0.068600	0.247222	-91.473212	-87.662047	-128.403683
04863	4983690	9.305007	-2.592095	0.711432	0.057940	-0.070675	0.251095	-91.704500	-87.626249	-128.163913
04864	4983715	9.203432	-2.549000	0.595930	0.013196	-0.066124	0.248131	-91.916034	-87.590765	-127.950047
04865	4983740	9.141699	-2.474523	0.545648	-0.024244	-0.057849	0.246874	-92.103051	-87.555564	-127.766359
04866	4983765	9.118452	-2.442733	0.497886	-0.054552	-0.059971	0.247781	-92.296007	-87.520197	-127.581065
04867	4983790	9.126921	-2.410836	0.431614	-0.070007	-0.061513	0.250135	-92.490534	-87.484456	-127.396411
04868	4983815	9.117572	-2.352762	0.345430	-0.083029	-0.059921	0.244699	-92.673463	-87.449377	-127.224988
04869	4983840	9.112239	-2.340166	0.284313	-0.078210	-0.063773	0.256416	-92.865041	-87.412670	-127.044451
04870	4983865	9.079319	-2.379735	0.212450	-0.081064	-0.062142	0.262420	-93.045736	-87.375090	-126.875213
04871	4983890	9.010624	-2.398675	0.136621	-0.081955	-0.061670	0.264314	-93.219837	-87.337220	-126.712697
04872	4983915	8.981709	-2.401418	0.124647	-0.092782	-0.058369	0.257812	-93.378238	-87.300175	-126.567247
04873	4983940	8.921189	-2.394378	0.106019	-0.099128	-0.054115	0.247349	-93.526266	-87.264755	-126.433288
04874	4983965	8.857858	-2.354587	0.116714	-0.107065	-0.061774	0.236057	-93.696591	-87.230861	-126.278139
04875	4983990	8.786414	-2.191005	0.146440	-0.118321	-0.066280	0.229560	-93.879019	-87.197831	-126.112483
04876	4984015	8.772853	-2.042514	0.148260	-0.137180	-0.079595	0.219458	-94.097023	-87.165967	-125.913745
04877	4984040	8.797789	-1.917414	0.161983	-0.140315	-0.084245	0.216204	-94.328330	-87.134597	-125.702296
04878	4984065	8.799140	-1.873526	0.203303	-0.142506	-0.094508	0.222413	-94.582708	-87.102182	-125.468054
04879	4984090	8.811529	-1.789829	0.251378	-0.146048	-0.117958	0.215808	-94.899141	-87.070374	-125.172178
04880	4984115	8.881948	-1.648211	0.261248	-0.132240	-0.141265	0.203310	-95.270986	-87.039843	-124.818690
04881	4984140	8.938555	-1.586259	0.242848	-0.133708	-0.164488	0.194882	-95.704727	-87.010188	-124.403562
04882	4984165	8.955148	-1.505197	0.264405	-0.141983	-0.189812	0.190711	-96.200877	-86.980577	-123.927114
04883	4984190	8.989678	-1.398055	0.282063	-0.153492	-0.203514	0.189112	-96.726285	-86.950750	-123.423005
04884	4984215	9.000757	-1.323837	0.302265	-0.162435	-0.208898	0.183652	-97.255566	-86.921243	-122.916163
04885	4984240	9.021478	-1.278438	0.301074	-0.169677	-0.214933	0.189503	-97.793121	-86.890658	-122.402183
04886	4984265	8.977435	-1.244128	0.313130	-0.186835	-0.214447	0.174579	-98.327220	-86.861942	-121.894111
04887	4984290	8.978791	-1.227693	0.333141	-0.188607	-0.213300	0.178117	-98.847740	-86.832495	-121.399879
04888	4984315	9.071063	-1.245530	0.321176	-0.195824	-0.212646	0.178193	-99.354789	-86.802694	-120.920045
04889	4984340	9.104174	-1.224853	0.309304	-0.211692	-0.206362	0.169432	-99.846443	-86.774164	-120.458007
04890	4984365	9.162057	-1.228944	0.292032	-0.226890	-0.203855	0.164744	-100.327777	-86.746139	-120.008474
04891	4984390	9.174558	-1.199912	0.265589	-0.249538	-0.190656	0.152178	-100.777834	-86.720024	-119.593506
04892	4984415	9.209085	-1.146302	0.255161	-0.271158	-0.184852	0.140774	-101.212079	-86.695377	-119.197360
04893	4984440	9.249114	-1.131060	0.227351	-0.291257	-0.173117	0.132672	-101.622139	-86.672144	-118.828421
04894	4984465	9.229918	-1.121338	0.199474	-0.315291	-0.153323	0.128151	-101.985136	-86.649982	-118.510066
04895	4984490	9.207881	-1.162520	0.178078	-0.335330	-0.121546	0.129424	-102.270362	-86.628494	-118.272484
04896	4984515	9.180198	-1.231297	0.191130	-0.351480	-0.098176	0.121157	-102.500371	-86.608706	-118.092426
04897	4984540	9.174578	-1.260327	0.220264	-0.359751	-0.070047	0.119101	-102.667687	-86.590158	-117.976455
04898	4984565	9.175746	-1.359388	0.249163	-0.370891	-0.039856	0.113842	-102.767426	-86.573280	-117.929780
04899	4984590	9.302054	-1.479397	0.332528	-0.361766	-0.017898	0.098613	-102.822200	-86.559223	-117.926839
04900	4984615	9.391572	-1.435504	0.357939	-0.346115	-0.004917	0.083055	-102.849282	-86.547637	-117.949304
04901	4984640	9.422103	-1.321246	0.327753	-0.347467	-0.004515	0.067499	-102.887185	-86.538351	-117.961214
04902	4984665	9.473131	-1.190762	0.377363	-0.343680	-0.005673	0.067215	-102.927292	-86.529069	-117.970371
04903	4984690	9.551594	-1.122265	0.433436	-0.329664	-0.019486	0.060298	-103.000675	-86.520308	-117.944181
04904	4984715	9.639628	-1.116978	0.482632	-0.310969	-0.036564	0.057545	-103.108278	-86.511260	-117.880935
04905	4984740	9.676663	-1.167957	0.509078	-0.305721	-0.056194	0.050746	-103.266518	-86.502626	-117.766293
04906	4984765	9.666947	-1.202384	0.515592	-0.295775	-0.085069	0.046155	-103.490814	-86.493651	-117.584043
04907	4984790	9.672437	-1.232589	0.508867	-0.277790	-0.108181	0.038642	-103.768007	-86.484894	-117.346214
04908	4984815	9.651814	-1.239414	0.495532	-0.255968	-0.128952	0.029874	-104.089156	-86.476447	-117.061122
04909	4984840	9.632595	-1.217341	0.478339	-0.231564	-0.148930	0.018659	-104.460206	-86.468861	-116.722620
04910	4984865	9.653385	-1.143045	0.470605	-0.221373	-0.164779	0.008541	-104.869754	-86.461960	-116.344081
04911	4984890	9.685204	-1.067389	0.453608	-0.205761	-0.186212	0.009635	-105.322646	-86.453933	-115.919871
04912	4984915	9.686885	-0.951635	0.399535	-0.188813	-0.200099	0.010855	-105.797625	-86.444881	-115.471004
04913	4984940	9.660835	-0.892470	0.390411	-0.181322	-0.209253	0.011241	-106.292652	-86.435287	-115.001062
04914	4984965	9.664948	-0.896638	0.395740	-0.168870	-0.215186	0.009249	-106.797621	-86.425471	-114.519368
04915	4984990	9.625023	-0.928115	0.369072	-0.169629	-0.209531	0.006762	-107.289303	-86.415973	-114.051090
04916	4985015	9.664893	-0.947459	0.384964	-0.165586	-0.198753	0.000884	-107.754914	-86.407393	-113.608251
04917	4985040	9.673190	-0.937777	0.379686	-0.159527	-0.195174	-0.006808	-108.218802	-86.399898	-113.166364
04918	4985065	9.642854	-0.954305	0.383607	-0.145058	-0.185631	-0.017235	-108.665747	-86.394033	-112.739373
04919	4985090	9.578025	-0.988785	0.403354	-0.126164	-0.175409	-0.024457	-109.091982	-86.389416	-112.330419
04920	4985115	9.525588	-1.014961	0.428506	-0.098589	-0.167488	-0.034913	-109.500490	-86.386301	-111.935166
04921	4985140	9.464844	-1.059101	0.466883	-0.076059	-0.157256	-0.049281	-109.898021	-86.385540	-111.547779
04922	4985165	9.463252	-1.136271	0.509102	-0.047018	-0.147487	-0.056167	-110.275842	-86.386020	-111.175972
04923	4985190	9.481159	-1.133542	0.507804	-0.024466	-0.141700	-0.068814	-110.648348	-86.388335	-110.806256
04924	4985215	9.541885	-1.096293	0.476082	-0.002697	-0.139996	-0.076889	-111.017379	-86.391572	-110.436793
04925	4985240	9.634149	-1.138842	0.453390	0.005151	-0.132658	-0.097772	-111.391512	-86.397920	-110.061199
04928	4985265	9.627356	-1.127736	0.425540	0.012834	-0.128943	-0.109012	-111.767488	-86.405806	-109.682658
04929	4985290	9.637121	-1.076805	0.404435	0.009996	-0.119913	-0.116910	-112.133198	-86.415071	-109.314814
04930	4985315	9.619158	-1.076884	0.424355	0.010520	-0.115709	-0.121923	-112.492296	-86.424993	-108.953417
04931	4985340	9.565121	-1.158332	0.509097	0.017701	-0.115652	-0.117745	-112.852439	-86.434312	-108.590053
04932	4985365	9.568983	-1.273998	0.549854	0.030990	-0.118668	-0.113131	-113.214753	-86.442712	-108.222610
04933	4985390	9.600497	-1.408738	0.536157	0.034070	-0.130054	-0.116780	-113.605808	-86.450793	-107.825933
04934	4985415	9.588111	-1.486939	0.488061	0.028341	-0.140607	-0.120878	-114.021564	-86.458542	-107.405225
04935	4985440	9.557866	-1.577420	0.413340	-0.001319	-0.151952	-0.128724	-114.478960	-86.466533	-106.947165
04936	4985465	9.602015	-1.626712	0.354746	-0.030044	-0.153565	-0.135732	-114.952793	-86.475110	-106.476763
04937	4985490	9.586762	-1.721551	0.338482	-0.053592	-0.154082	-0.145946	-115.443591	-86.484735	-105.992749
04938	4985515	9.659693	-1.771034	0.330434	-0.073364	-0.151080	-0.148068	-115.931485	-86.494484	-105.514390
04939	4985540	9.702433	-1.779220	0.302483	-0.090243	-0.153850	-0.150990	-116.437583	-86.504259	-105.020317
04940	4985565	9.692593	-1.911224	0.310033	-0.099313	-0.152618	-0.150239	-116.944363	-86.513750	-104.526866
04941	4985590	9.669095	-2.025262	0.275063	-0.100240	-0.150147	-0.155962	-117.455017	-86.523865	-104.029673
04942	4985615	9.680048	-2.052808	0.290948	-0.111860	-0.151666	-0.167920	-117.982257	-86.535044	-103.517459
04943	4985640	9.625210	-1.965975	0.243365	-0.131202	-0.141203	-0.179251	-118.511049	-86.548150	-103.006550
04944	4985665	9.545667	-1.925659	0.129189	-0.160736	-0.132242	-0.177087	-119.026816	-86.561321	-102.512934
04945	4985690	9.464531	-1.860977	0.118735	-0.203781	-0.124909	-0.185937	-119.547773	-86.575843	-102.020303
04946	4985715	9.435606	-1.869244	0.114673	-0.250518	-0.117628	-0.186504	-120.060629	-86.590613	-101.542446
04947	4985740	9.441033	-1.921476	0.115870	-0.271663	-0.117029	-0.182608	-120.579410	-86.604759	-101.061750
04948	4985765	9.443613	-1.982138	0.155488	-0.305283	-0.118887	-0.181542	-121.109682	-86.618376	-100.574374
04949	4985790	9.392691	-1.962852	0.147526	-0.329983	-0.130163	-0.184518	-121.674732	-86.631239	-100.055711
04950	4985815	9.403689	-1.979333	0.147517	-0.345159	-0.145231	-0.191608	-122.281604	-86.643439	-99.497305
04951	4985840	9.425780	-2.002606	0.112892	-0.361314	-0.163910	-0.200918	-122.950667	-86.655020	-98.878958
04952	4985865	9.359815	-1.928272	0.103791	-0.356044	-0.182694	-0.210701	-123.675142	-86.665854	-98.204357
04953	4985890	9.249962	-1.789182	0.056346	-0.337672	-0.205161	-0.209400	-124.445331	-86.674218	-97.481335
04954	4985915	9.186626	-1.831671	0.018997	-0.320709	-0.223979	-0.208177	-125.247936	-86.680261	-96.723403
04955	4985940	9.205713	-1.959578	0.018585	-0.304018	-0.241856	-0.200287	-126.080150	-86.683321	-95.933431
04956	4985965	9.203013	-1.989689	-0.009415	-0.281820	-0.258997	-0.209935	-126.958748	-86.685347	-95.093816
04957	4985990	9.207242	-1.967594	-0.038598	-0.279570	-0.278202	-0.222911	-127.895097	-86.686409	-94.196030
04958	4986015	9.208733	-1.911135	-0.050340	-0.282839	-0.296831	-0.231934	-128.876984	-86.685909	-93.253115
04959	4986040	9.182617	-1.897357	-0.064935	-0.294380	-0.311098	-0.244832	-129.912673	-86.684624	-92.257948
04960	4986065	9.171671	-1.853332	-0.066111	-0.303900	-0.322518	-0.247693	-130.974565	-86.681536	-91.237897
04961	4986090	9.210096	-1.881003	-0.030289	-0.308168	-0.333948	-0.254884	-132.067618	-86.677025	-90.187241
04962	4986115	9.270499	-1.991059	-0.017343	-0.311434	-0.343368	-0.260168	-133.178379	-86.670955	-89.119351
04963	4986140	9.330964	-2.047539	0.001134	-0.306094	-0.353713	-0.266905	-134.319078	-86.663368	-88.020658
04964	4986165	9.340504	-2.086118	0.023577	-0.293104	-0.365539	-0.277260	-135.490827	-86.654348	-86.888990
04965	4986190	9.384524	-2.013481	0.084963	-0.282951	-0.375462	-0.281107	-136.677943	-86.643330	-85.740459
04966	4986215	9.377553	-1.938143	0.159611	-0.254960	-0.388496	-0.277826	-137.862918	-86.629223	-84.590106
04967	4986240	9.359395	-1.964583	0.241887	-0.238855	-0.397712	-0.284804	-139.068130	-86.613391	-83.417088
04968	4986265	9.361743	-2.132606	0.309070	-0.222130	-0.409614	-0.283581	-140.275446	-86.594694	-82.239542
04969	4986290	9.456356	-2.241655	0.412413	-0.190163	-0.421655	-0.290105	-141.494835	-86.573775	-81.045290
04970	4986315	9.537313	-2.220172	0.544067	-0.160347	-0.441007	-0.302222	-142.740167	-86.550221	-79.820824
04971	4986340	9.621216	-2.184680	0.606667	-0.132558	-0.455164	-0.309540	-144.003193	-86.524043	-78.574530
04972	4986365	9.779448	-2.205498	0.654519	-0.112422	-0.478782	-0.313230	-145.282583	-86.493749	-77.308915
04973	4986390	9.819220	-2.211249	0.712979	-0.094162	-0.495032	-0.327854	-146.585980	-86.460970	-76.016583
04974	4986415	9.904422	-2.262287	0.766015	-0.068711	-0.508159	-0.330938	-147.877943	-86.425099	-74.732102
04975	4986440	10.058649	-2.171809	0.823543	-0.036763	-0.525595	-0.335360	-149.173312	-86.385591	-73.439476
04976	4986465	10.177216	-2.081084	0.825223	-0.020583	-0.539602	-0.342326	-150.466843	-86.343029	-72.146311
04977	4986490	10.201974	-2.078389	0.829259	-0.014110	-0.548880	-0.342010	-151.738189	-86.297457	-70.874384
04978	4986515	10.241674	-2.191233	0.862113	0.004116	-0.557068	-0.344266	-152.982758	-86.249287	-69.626707
04979	4986540	10.278710	-2.269721	0.876544	0.034362	-0.564973	-0.348271	-154.211169	-86.198539	-68.390710
04980	4986565	10.391816	-2.253005	0.818166	0.064367	-0.569017	-0.351265	-155.411687	-86.145736	-67.178288
04981	4986590	10.473177	-2.280286	0.754372	0.083071	-0.571035	-0.352065	-156.579664	-86.091054	-65.995719
04982	4986615	10.579260	-2.326878	0.706447	0.094000	-0.568310	-0.357306	-157.716114	-86.035528	-64.843214
04983	4986640	10.657801	-2.383102	0.661121	0.110134	-0.562663	-0.367078	-158.837531	-85.979613	-63.703275
04984	4986665	10.740571	-2.345870	0.625420	0.124754	-0.561389	-0.362647	-159.916206	-85.922132	-62.604006
04985	4986690	10.775221	-2.327689	0.551091	0.130238	-0.559844	-0.365776	-160.968333	-85.863577	-61.530487
04986	4986715	10.784958	-2.363242	0.483245	0.133438	-0.550601	-0.367533	-161.982941	-85.805111	-60.494169
04987	4986740	10.803015	-2.357513	0.423487	0.147013	-0.544073	-0.362292	-162.958448	-85.745875	-59.494910
04988	4986765	10.843099	-2.366915	0.363683	0.151728	-0.539453	-0.353053	-163.886615	-85.685681	-58.542367
04989	4986790	10.879062	-2.406464	0.271896	0.158763	-0.530271	-0.346343	-164.771044	-85.625376	-57.632603
04990	4986815	10.923423	-2.358017	0.189705	0.167260	-0.523290	-0.337267	-165.605719	-85.564836	-56.771588
04991	4986840	10.984227	-2.302810	0.128837	0.171466	-0.522100	-0.334629	-166.416043	-85.503264	-55.934180
04992	4986865	11.044925	-2.357549	0.058228	0.169490	-0.515008	-0.327539	-167.189000	-85.441555	-55.134470
04993	4986890	11.141597	-2.317400	-0.021276	0.166698	-0.504032	-0.325853	-167.934236	-85.380498	-54.362903
04994	4986915	11.243691	-2.256712	-0.062199	0.179754	-0.505285	-0.315401	-168.635912	-85.318365	-53.633261
04995	4986940	11.342947	-2.252484	-0.109971	0.189470	-0.502269	-0.306055	-169.304767	-85.255515	-52.934925
04996	4986965	11.442372	-2.220531	-0.197487	0.202766	-0.497767	-0.299603	-169.941617	-85.192483	-52.266731
04997	4986990	11.560969	-2.301245	-0.303999	0.204234	-0.499204	-0.294061	-170.552505	-85.128511	-51.624318
04998	4987015	11.671404	-2.295412	-0.402228	0.203317	-0.493799	-0.292419	-171.139038	-85.064900	-51.006612
04999	4987040	11.751666	-2.191923	-0.498795	0.205475	-0.488764	-0.297669	-171.721239	-85.001379	-50.392694
05000	4987065	11.874648	-2.107582	-0.623398	0.201188	-0.474210	-0.284508	-172.264740	-84.939141	-49.818182
05001	4987090	12.033215	-2.136127	-0.716348	0.188926	-0.465992	-0.292286	-172.807052	-84.877740	-49.246573
05002	4987115	12.222204	-2.062973	-0.807706	0.163786	-0.453191	-0.290710	-173.330958	-84.817873	-48.697229
05003	4987140	12.323136	-1.958106	-0.897604	0.148210	-0.443052	-0.294511	-173.852864	-84.758849	-48.151859
05004	4987165	12.422573	-1.836936	-0.945020	0.133309	-0.434299	-0.296918	-174.367344	-84.700662	-47.616039
05005	4987190	12.535670	-1.799656	-0.992628	0.111000	-0.428033	-0.291315	-174.864182	-84.642861	-47.101096
05006	4987215	12.686017	-1.714181	-1.036098	0.108489	-0.416277	-0.293051	-175.347955	-84.586575	-46.599843
05007	4987240	12.789609	-1.601269	-1.096822	0.102787	-0.414132	-0.292012	-175.824303	-84.529966	-46.106569
05008	4987265	12.876727	-1.445650	-1.148035	0.088087	-0.402530	-0.296004	-176.297579	-84.474668	-45.618450
05009	4987290	13.046360	-1.453543	-1.250257	0.068723	-0.397393	-0.297104	-176.765248	-84.419732	-45.138705
05010	4987315	13.200637	-1.463119	-1.272804	0.056082	-0.386989	-0.300249	-177.225678	-84.366168	-44.668291
05011	4987340	13.337064	-1.465729	-1.311292	0.056891	-0.387141	-0.302142	-177.683490	-84.311990	-44.200066
05012	4987365	13.320600	-1.454717	-1.323175	0.065011	-0.382589	-0.312871	-178.146450	-84.258151	-43.725455
05013	4987390	13.395225	-1.358284	-1.373333	0.067785	-0.372516	-0.311202	-178.597582	-84.205371	-43.262288
05014	4987415	13.517953	-1.296269	-1.407587	0.062351	-0.366440	-0.308451	-179.033757	-84.153340	-42.815203
05015	4987440	13.638887	-1.273376	-1.291835	0.060229	-0.362898	-0.319631	-179.481298	-84.101241	-42.356648
05016	4987465	13.780255	-1.344009	-1.145916	0.087462	-0.378411	-0.327899	-179.928385	-84.046561	-41.894584
05017	4987490	13.869451	-1.437869	-1.070415	0.135896	-0.390548	-0.347239	179.613523	-83.989760	-41.414431
05018	4987515	13.879076	-1.472197	-1.075885	0.179456	-0.406499	-0.361292	179.155156	-83.930512	-40.928007
05019	4987540	13.901391	-1.452603	-1.176717	0.202918	-0.415845	-0.371698	178.692436	-83.869227	-40.433440
05020	4987565	13.863125	-1.384920	-1.250926	0.218086	-0.418291	-0.383507	178.225893	-83.807122	-39.932786
05021	4987590	13.906321	-1.259342	-1.375313	0.212160	-0.407855	-0.391750	177.756832	-83.746033	-39.430394
05022	4987615	13.931598	-1.135079	-1.510409	0.201619	-0.396237	-0.378197	177.315675	-83.686530	-38.957889
05023	4987640	14.040683	-1.081198	-1.596528	0.190516	-0.378086	-0.364646	176.894449	-83.629061	-38.506632
05024	4987665	14.142775	-1.113797	-1.685578	0.166143	-0.344250	-0.351472	176.491639	-83.576182	-38.077371
05025	4987690	14.304015	-1.164445	-1.765390	0.150538	-0.313400	-0.340064	176.105119	-83.527491	-37.666709
05026	4987715	14.407496	-1.179284	-1.847674	0.131033	-0.277914	-0.335482	175.727238	-83.483889	-37.267897
05027	4987740	14.599091	-1.218841	-1.940700	0.113486	-0.236304	-0.335962	175.344197	-83.445644	-36.866009
05029	4987765	14.808462	-1.258609	-1.987216	0.110765	-0.191218	-0.326043	174.972673	-83.413653	-36.476078
05031	4987790	14.911844	-1.276316	-2.028421	0.114307	-0.155501	-0.325280	174.602129	-83.386478	-36.086600
05032	4987815	15.027712	-1.239023	-2.090678	0.121483	-0.115554	-0.323536	174.235914	-83.365024	-35.700840
05033	4987840	15.051257	-1.197638	-2.110422	0.125201	-0.072399	-0.325382	173.861776	-83.349113	-35.306139
05034	4987865	14.982703	-1.048973	-2.145912	0.135775	-0.042115	-0.318791	173.494814	-83.337322	-34.917125
05035	4987890	14.848025	-0.860595	-2.149298	0.141953	-0.001331	-0.307672	173.137622	-83.331234	-34.537051
05036	4987915	14.717301	-0.712117	-2.106382	0.132912	0.032318	-0.300103	172.786787	-83.330085	-34.165124
05037	4987940	14.480549	-0.528083	-2.044810	0.115791	0.065847	-0.284220	172.444573	-83.333433	-33.803901
05038	4987965	14.298863	-0.309624	-1.960525	0.087972	0.089635	-0.278756	172.100656	-83.340011	-33.444978
05039	4987990	14.004290	-0.045907	-1.860198	0.043847	0.103202	-0.269419	171.758692	-83.348452	-33.094391
05040	4988015	13.687796	0.218041	-1.805046	-0.004813	0.110190	-0.259349	171.422774	-83.358155	-32.757376
05041	4988040	13.470443	0.463988	-1.755222	-0.058268	0.115417	-0.239924	171.097954	-83.368491	-32.438786
05042	4988065	13.244841	0.719707	-1.709349	-0.106871	0.114372	-0.216201	170.794275	-83.379013	-32.148497
05043	4988090	13.098867	0.863750	-1.627921	-0.146474	0.107670	-0.202103	170.502535	-83.388741	-31.875942
05044	4988115	12.922542	0.958416	-1.549310	-0.176117	0.100219	-0.173531	170.244996	-83.398257	-31.642551
05045	4988140	12.724315	1.053252	-1.527880	-0.191376	0.087348	-0.150298	170.012835	-83.406105	-31.436458
05046	4988165	12.553543	1.097224	-1.503906	-0.187072	0.072312	-0.125191	169.814725	-83.412373	-31.264024
05047	4988190	12.362183	1.116553	-1.515892	-0.183742	0.059620	-0.097241	169.653706	-83.417503	-31.128450
05048	4988215	12.081405	1.188179	-1.535743	-0.173797	0.059548	-0.075535	169.523210	-83.423454	-31.022606
05049	4988240	11.101337	2.071828	-1.733978	-0.181209	0.066578	0.007232	169.488249	-83.432228	-31.013562
05050	4988265	11.153002	1.941874	-1.544351	-0.170043	0.091791	0.121336	169.588976	-83.447522	-31.139490
05051	4988290	11.173129	1.622893	-1.529473	-0.166081	0.108188	0.191671	169.773689	-83.466895	-31.349379
05052	4988315	11.269981	1.024735	-1.512762	-0.168343	0.135182	0.191441	169.955847	-83.490295	-31.557429
05053	4988340	11.249938	0.565346	-1.479762	-0.183339	0.160341	0.130819	170.053763	-83.515377	-31.682428
05054	4988365	11.326708	0.501738	-1.378985	-0.187343	0.189844	0.049919	170.044714	-83.542608	-31.700349
05055	4988390	11.113359	0.585672	-1.378836	-0.198855	0.203116	-0.045441	169.911773	-83.569337	-31.595247
05056	4988415	10.656546	0.907412	-1.343486	-0.208133	0.225069	-0.125137	169.674227	-83.597400	-31.386635
05057	4988440	10.194216	1.311475	-1.264060	-0.213540	0.239655	-0.192864	169.342357	-83.625332	-31.083490
05058	4988465	9.733439	1.618373	-1.311094	-0.217046	0.246087	-0.217608	168.974344	-83.653296	-30.744499
05059	4988490	9.265921	1.891201	-1.435322	-0.210482	0.274073	-0.229722	168.581642	-83.684604	-30.379743
05060	4988515	8.862764	2.119551	-1.440154	-0.221263	0.305608	-0.221479	168.188459	-83.720602	-30.016464
05061	4988540	8.420787	2.259758	-1.394781	-0.235343	0.333057	-0.204748	167.800028	-83.760365	-29.659636
05062	4988565	8.048946	2.331119	-1.342926	-0.254953	0.351809	-0.180632	167.429682	-83.803234	-29.323854
05063	4988590	7.751301	2.332253	-1.268738	-0.292368	0.361840	-0.139126	167.099838	-83.848593	-29.034228
05064	4988615	7.539218	2.333711	-1.276825	-0.328514	0.353278	-0.104067	166.811154	-83.894027	-28.791585
05065	4988640	7.391909	2.374998	-1.275471	-0.383295	0.344889	-0.056010	166.573672	-83.939449	-28.607992
05066	4988665	7.408725	2.379512	-1.389717	-0.443397	0.324427	-0.011790	166.389335	-83.983430	-28.486513
05067	4988690	7.482077	2.384240	-1.539777	-0.528567	0.304051	0.031848	166.255159	-84.026017	-28.427747
05068	4988715	7.603601	2.409379	-1.652537	-0.627884	0.289804	0.072970	166.167648	-84.068316	-28.430530
05069	4988740	7.755116	2.329856	-1.715169	-0.731766	0.268614	0.103781	166.110572	-84.108424	-28.478547
05070	4988765	7.966138	2.316565	-1.847930	-0.836024	0.255416	0.129573	166.077869	-84.147589	-28.566075
05071	4988790	8.181181	2.238609	-1.978288	-0.939603	0.247920	0.156312	166.069700	-84.186636	-28.693172
05072	4988815	8.388114	2.221287	-2.133615	-1.066447	0.245115	0.178486	166.078137	-84.226349	-28.855520
05073	4988840	8.579794	2.161320	-2.277197	-1.207549	0.261064	0.195842	166.083474	-84.268584	-29.034748
05074	4988865	8.795288	2.309000	-2.445290	-1.356702	0.288364	0.225681	166.101040	-84.315639	-29.247723
05075	4988890	8.886857	2.404704	-2.661441	-1.508778	0.334759	0.257884	166.128030	-84.370245	-29.492039
05076	4988915	9.045792	2.474125	-2.841809	-1.661006	0.405135	0.289381	166.158804	-84.435981	-29.762342
05077	4988940	9.179969	2.621791	-2.990052	-1.810210	0.498264	0.331211	166.196733	-84.515811	-30.060971
05078	4988965	9.272642	2.721146	-3.083910	-1.939788	0.600118	0.380437	166.257110	-84.611465	-30.400751
05079	4988990	9.343017	2.654120	-3.174372	-2.058388	0.718267	0.434046	166.345513	-84.725338	-30.785681
05080	4989015	9.420483	2.745211	-3.268454	-2.203465	0.842509	0.481927	166.454407	-84.858315	-31.212280
05081	4989040	9.457849	2.895043	-3.245315	-2.365717	0.971064	0.534166	166.586045	-85.010607	-31.684647
05082	4989065	9.429345	3.126250	-3.288485	-2.526925	1.106108	0.580384	166.737717	-85.183145	-32.200180
05083	4989090	9.429609	3.359881	-3.235837	-2.671802	1.232176	0.638151	166.942843	-85.375014	-32.790035
05084	4989115	9.435208	3.434072	-3.223531	-2.788001	1.361573	0.695315	167.219584	-85.586802	-33.468557
05085	4989140	9.595854	3.319437	-3.096282	-2.882094	1.481031	0.751977	167.585935	-85.816531	-34.249954
05086	4989165	9.839266	3.200926	-2.997029	-2.951317	1.604798	0.803373	168.060862	-86.064709	-35.149902
05087	4989190	10.156492	2.973035	-2.775609	-2.963055	1.696597	0.832802	168.651237	-86.326015	-36.166963
05088	4989215	10.436375	2.554259	-2.621402	-2.940597	1.765962	0.838573	169.355461	-86.596655	-37.294867
05089	4989240	10.764806	2.269258	-2.530686	-2.890796	1.823187	0.812412	170.127854	-86.873581	-38.483282
05090	4989265	11.105850	2.033838	-2.466253	-2.814677	1.858333	0.770360	170.966760	-87.153505	-39.727067
05091	4989290	11.405584	1.798391	-2.433608	-2.729211	1.872249	0.713728	171.859903	-87.433179	-41.012591
05092	4989315	11.635234	1.707293	-2.358150	-2.607219	1.874823	0.654787	172.832905	-87.711237	-42.360594
05093	4989340	11.669426	1.609447	-2.331822	-2.469783	1.849719	0.595346	173.909175	-87.983515	-43.791661
05094	4989365	11.675071	1.657669	-2.371641	-2.326479	1.824511	0.550176	175.195822	-88.250424	-45.412443
05095	4989390	11.646368	1.759485	-2.373999	-2.191246	1.795297	0.522144	176.878675	-88.511424	-47.409982
05096	4989415	11.533294	1.801704	-2.287396	-2.062593	1.759783	0.515890	179.332925	-88.765260	-50.160806
05097	4989440	11.523482	1.757595	-2.241167	-1.929233	1.719077	0.521980	-176.842880	-89.009262	-54.262128
05098	4989465	11.397813	1.548557	-2.213904	-1.813228	1.688664	0.511439	-170.636417	-89.241416	-60.729075
05099	4989490	11.375353	1.331105	-2.174778	-1.739864	1.648153	0.496698	-159.572550	-89.451719	-72.042891
05100	4989515	11.367982	1.194610	-2.046365	-1.685480	1.611666	0.448552	-138.272708	-89.618785	-93.585219
05101	4989540	11.234857	1.001159	-1.799892	-1.632639	1.566932	0.388079	-101.363679	-89.685682	-130.728757
05102	4989565	11.064653	0.872297	-1.521533	-1.578597	1.513418	0.322220	-66.652512	-89.614391	-165.666668
05103	4989590	10.968401	0.707213	-1.131534	-1.496108	1.446523	0.254250	-47.527277	-89.469962	174.993185
05104	4989615	10.895708	0.561517	-0.776085	-1.417206	1.364037	0.175305	-37.139523	-89.308529	164.401434
05105	4989640	10.763745	0.514454	-0.328561	-1.335007	1.252624	0.095378	-30.716025	-89.152620	157.786101
05106	4989665	10.555834	0.475402	0.187983	-1.234018	1.123085	0.028363	-26.320809	-89.010067	153.213521
05107	4989690	10.405775	0.459668	0.713951	-1.111745	0.975455	-0.024240	-23.120545	-88.885392	149.853427
05108	4989715	10.283384	0.400194	1.162663	-0.987323	0.801027	-0.063789	-20.741885	-88.783009	147.332428
05109	4989740	10.214714	0.344920	1.615485	-0.862836	0.616573	-0.114000	-18.792691	-88.706238	145.259125
05110	4989765	10.067523	0.293641	2.078913	-0.750344	0.415592	-0.162576	-17.130329	-88.657611	143.488796
05111	4989790	9.910735	0.194425	2.493002	-0.624746	0.196257	-0.197460	-15.722998	-88.639464	141.991541
05112	4989815	9.799946	0.130360	2.698677	-0.524876	-0.017737	-0.216426	-14.559701	-88.650672	140.752375
05113	4989840	9.674244	0.146257	2.864754	-0.458589	-0.224750	-0.241826	-13.501852	-88.691114	139.628516
05114	4989865	9.563729	0.207481	3.037555	-0.423151	-0.431931	-0.252031	-12.596821	-88.760345	138.662615
05115	4989890	9.417270	0.268521	3.260870	-0.425960	-0.629883	-0.244148	-11.921799	-88.856740	137.926400
05116	4989915	9.360285	0.256751	3.460126	-0.454292	-0.824267	-0.223151	-11.600274	-88.979487	137.539475
05117	4989940	9.319767	0.209124	3.672503	-0.496106	-1.011367	-0.183791	-11.877049	-89.127479	137.745195
05118	4989965	9.130648	0.171484	3.823751	-0.539877	-1.188843	-0.138050	-13.222194	-89.298810	139.013107
05119	4989990	9.018887	0.197197	3.935407	-0.565566	-1.360906	-0.092681	-16.856567	-89.491420	142.566642
05120	4990015	8.980368	0.187589	3.927462	-0.598032	-1.511441	-0.042044	-27.761027	-89.695536	153.385536
05121	4990040	8.995529	-0.070400	3.769981	-0.636298	-1.645821	0.006051	-77.062849	-89.853824	-157.403511
05122	4990065	9.046188	-0.518094	3.614401	-0.642612	-1.763551	0.057955	-145.785990	-89.732945	-88.772119
05123	4990090	9.110720	-0.930041	3.445717	-0.616737	-1.847868	0.101265	-161.405797	-89.486718	-73.240353
05124	4990115	9.135258	-1.193754	3.367780	-0.566912	-1.912952	0.140749	-166.502304	-89.217052	-68.224816
05125	4990140	9.098911	-1.393471	3.456073	-0.501741	-1.974236	0.183194	-168.775247	-88.934543	-66.023483
05126	4990165	9.025762	-1.499347	3.457059	-0.427969	-2.039743	0.210358	-170.006534	-88.641179	-64.853260
05127	4990190	9.030719	-1.427028	3.234139	-0.355690	-2.079630	0.235193	-170.712144	-88.341219	-64.198394
05128	4990215	9.024552	-1.339371	2.963419	-0.297802	-2.076737	0.257019	-171.101248	-88.041144	-63.851776
05129	4990240	8.992077	-1.201114	2.767235	-0.269626	-2.036931	0.284489	-171.275460	-87.745934	-63.716113
05132	4990265	8.863187	-1.134352	2.588068	-0.241736	-1.987674	0.303383	-171.325983	-87.457280	-63.700222
05133	4990290	8.770408	-0.984953	2.346726	-0.225927	-1.905971	0.317571	-171.291070	-87.179887	-63.767590
05134	4990315	8.636575	-0.819891	1.971334	-0.264721	-1.778141	0.339522	-171.155683	-86.920236	-63.941063
05135	4990340	8.689708	-0.708831	1.704801	-0.381561	-1.586473	0.357716	-170.947024	-86.687144	-64.204807
05136	4990365	8.935490	-0.554083	1.507616	-0.538938	-1.359313	0.366193	-170.686540	-86.485922	-64.543108
05137	4990390	9.272046	-0.372222	1.400741	-0.700032	-1.132329	0.370594	-170.387311	-86.316570	-64.943418
05138	4990415	9.322118	-0.079041	1.352480	-0.836571	-0.896450	0.362356	-170.063680	-86.180714	-65.387719
05139	4990440	9.264868	0.308766	1.351061	-0.931362	-0.679784	0.344235	-169.740583	-86.075574	-65.845288
05140	4990465	9.199030	0.515047	1.372983	-0.991485	-0.468347	0.322075	-169.411111	-86.000622	-66.317929
05141	4990490	9.118051	0.748716	1.402864	-1.033464	-0.277934	0.299125	-169.074606	-85.952889	-66.803683
05142	4990515	8.960000	0.913862	1.374117	-1.044918	-0.097643	0.278002	-168.715519	-85.931010	-67.313548
05143	4990540	8.720487	0.931959	1.339448	-1.052408	0.064896	0.260727	-168.334006	-85.932074	-67.847172
05144	4990565	8.453515	1.010449	1.312961	-1.041393	0.215519	0.243419	-167.920899	-85.954499	-68.410880
05145	4990590	8.207014	0.944699	1.272744	-1.033819	0.352994	0.224061	-167.478713	-85.996457	-69.002629
05146	4990615	7.996388	0.850129	1.181949	-1.039252	0.479634	0.205883	-166.999415	-86.056481	-69.632064
05147	4990640	7.744649	0.860240	1.075483	-1.046729	0.582911	0.178951	-166.512704	-86.131287	-70.270211
05148	4990665	7.572749	0.807118	0.950300	-1.064943	0.671310	0.156707	-166.006694	-86.218771	-70.930252
05149	4990690	7.414686	0.830905	0.839949	-1.091952	0.752695	0.135166	-165.477781	-86.317913	-71.617051
05150	4990715	7.248356	0.889074	0.753663	-1.117175	0.813082	0.117013	-164.918070	-86.425780	-72.337946
05151	4990740	7.130108	0.952464	0.715231	-1.130240	0.849097	0.099617	-164.342018	-86.538700	-73.077306
05152	4990765	7.042459	1.084942	0.598661	-1.139777	0.863232	0.086841	-163.743378	-86.653599	-73.840573
05153	4990790	7.011157	1.177468	0.491335	-1.158582	0.865134	0.076732	-163.122293	-86.768684	-74.628931
05154	4990815	6.930500	1.264805	0.312216	-1.192727	0.845270	0.080098	-162.456059	-86.880510	-75.466973
05155	4990840	6.875814	1.343620	0.191486	-1.246967	0.824205	0.078675	-161.769509	-86.988858	-76.333396
05156	4990865	6.833574	1.423940	0.060207	-1.307687	0.790191	0.091927	-161.030031	-87.091397	-77.261444
05157	4990890	6.734889	1.517975	-0.073768	-1.349727	0.751925	0.088897	-160.282187	-87.188279	-78.203816
05158	4990915	6.684351	1.602292	-0.189075	-1.388013	0.702715	0.093205	-159.513494	-87.277799	-79.172104
05159	4990940	6.625529	1.627621	-0.343162	-1.407857	0.657332	0.114784	-158.684539	-87.359386	-80.203869
05160	4990965	6.595792	1.605146	-0.569080	-1.412846	0.605530	0.131852	-157.809633	-87.432449	-81.282283
05161	4990990	6.440275	1.490045	-0.687784	-1.409891	0.563765	0.150046	-156.876590	-87.498205	-82.418410
05162	4991015	6.391058	1.417855	-0.870098	-1.378045	0.520079	0.165685	-155.888667	-87.556559	-83.604465
05163	4991040	6.385803	1.340073	-1.025825	-1.348389	0.485637	0.167534	-154.895608	-87.609348	-84.791742
05164	4991065	6.320166	1.364107	-1.197186	-1.304971	0.455268	0.168718	-153.890768	-87.657260	-85.984543
05165	4991090	6.324835	1.337498	-1.437732	-1.250883	0.427461	0.171261	-152.870031	-87.700569	-87.185461
05166	4991115	6.317281	1.334419	-1.720702	-1.193467	0.414728	0.167786	-151.824314	-87.741664	-88.402742
05167	4991140	6.287402	1.236284	-1.944216	-1.147725	0.422712	0.167497	-150.724648	-87.782820	-89.667792
05168	4991165	6.216096	1.155799	-2.111943	-1.101535	0.443414	0.161682	-149.553379	-87.825976	-90.997840
05169	4991190	6.205202	1.053035	-2.219892	-1.049784	0.468365	0.157879	-148.286481	-87.871380	-92.416128
05170	4991215	6.095110	0.888529	-2.342686	-0.995069	0.505747	0.160553	-146.856629	-87.919855	-93.989263
05171	4991240	5.949168	0.745872	-2.434916	-0.937543	0.551956	0.150612	-145.282643	-87.973074	-95.698660
05172	4991265	5.910215	0.539501	-2.399763	-0.875426	0.601007	0.138813	-143.530737	-88.031192	-97.577122
05173	4991290	5.811980	0.309655	-2.348743	-0.803195	0.655963	0.120415	-141.575082	-88.095016	-99.649029
05174	4991315	5.782530	0.101641	-2.252459	-0.724708	0.700866	0.090215	-139.434561	-88.163990	-101.894296
05175	4991340	5.700598	-0.146380	-2.123148	-0.632735	0.751658	0.053260	-137.087075	-88.239033	-104.333635
05176	4991365	5.632247	-0.382313	-1.910074	-0.531553	0.786194	0.016713	-134.521460	-88.317925	-106.976602
05177	4991390	5.590118	-0.553725	-1.680812	-0.421095	0.814370	-0.029461	-131.739411	-88.400619	-109.820152
05178	4991415	5.592190	-0.635715	-1.455255	-0.321229	0.832901	-0.059277	-128.656979	-88.483940	-112.949548
05179	4991440	5.638191	-0.726169	-1.180536	-0.220034	0.842807	-0.092562	-125.283680	-88.567103	-116.355510
05180	4991465	5.720140	-0.756040	-0.917525	-0.139180	0.831142	-0.123958	-121.655873	-88.647595	-120.004349
05181	4991490	5.775992	-0.767956	-0.679734	-0.067112	0.807779	-0.147539	-117.779196	-88.723388	-123.891680
05182	4991515	5.871741	-0.770353	-0.417964	-0.014080	0.772773	-0.168853	-113.692988	-88.793233	-127.980688
05183	4991540	5.961996	-0.791884	-0.178864	0.031140	0.724219	-0.181586	-109.494109	-88.855795	-132.176008
05184	4991565	5.994604	-0.733590	0.039246	0.066409	0.659546	-0.198516	-105.336928	-88.911458	-136.324483
05185	4991590	6.089243	-0.651851	0.237530	0.090213	0.594033	-0.209115	-101.279479	-88.960501	-140.369727
05186	4991615	6.160481	-0.586582	0.433073	0.101262	0.509404	-0.211874	-97.528089	-89.002507	-144.107031
05187	4991640	6.239928	-0.559784	0.619233	0.109561	0.422709	-0.219855	-94.219013	-89.040425	-147.400914
05188	4991665	6.275529	-0.465441	0.757714	0.102992	0.332230	-0.221540	-91.454973	-89.074903	-150.150593
05189	4991690	6.410225	-0.378043	0.917518	0.088196	0.235727	-0.220935	-89.374072	-89.107249	-152.219140
05190	4991715	6.502344	-0.293232	1.026794	0.066505	0.135973	-0.219688	-88.084212	-89.138509	-153.499438
05191	4991740	6.576561	-0.249540	1.114667	0.045477	0.035334	-0.209866	-87.708250	-89.168845	-153.868946
05192	4991765	6.631493	-0.189397	1.207925	0.026621	-0.061779	-0.207581	-88.302248	-89.199350	-153.271094
05193	4991790	6.741487	-0.125205	1.315797	0.014183	-0.157216	-0.203849	-89.962106	-89.229356	-151.609068
05194	4991815	6.912173	-0.066362	1.385212	0.005268	-0.245686	-0.192350	-92.715768	-89.256291	-148.854194
05195	4991840	7.071890	-0.010185	1.429321	0.010681	-0.339027	-0.184163	-96.730237	-89.278991	-144.837887
05196	4991865	7.197287	0.062633	1.448264	0.025986	-0.419591	-0.180286	-101.893268	-89.295099	-139.670754
05197	4991890	7.325604	0.164541	1.407493	0.050789	-0.498752	-0.179891	-108.135609	-89.301742	-133.420690
05198	4991915	7.518498	0.196170	1.391771	0.076668	-0.566086	-0.172199	-115.074849	-89.294805	-126.469692
05199	4991940	7.637033	0.243017	1.372083	0.099854	-0.624171	-0.170246	-122.345760	-89.273253	-119.183931
05200	4991965	7.759710	0.318630	1.368413	0.134136	-0.683066	-0.170045	-129.580340	-89.235378	-111.929544
05201	4991990	7.925000	0.359810	1.381944	0.158200	-0.735562	-0.166695	-136.376541	-89.180765	-105.110054
05202	4992015	8.125966	0.347269	1.413919	0.180063	-0.784452	-0.174597	-142.563329	-89.111235	-98.896488
05203	4992040	8.328347	0.384201	1.458015	0.209805	-0.828469	-0.168793	-147.967968	-89.027061	-93.461102
05204	4992065	8.516971	0.370361	1.468720	0.231333	-0.868933	-0.169529	-152.621689	-88.930504	-88.773522
05205	4992090	8.763379	0.355094	1.495422	0.257237	-0.903228	-0.168584	-156.566723	-88.823478	-84.790899
05206	4992115	8.973991	0.326060	1.515379	0.287530	-0.937410	-0.167930	-159.892618	-88.707229	-81.422694
05207	4992140	9.225957	0.262832	1.502019	0.297144	-0.966511	-0.167374	-162.715058	-88.583202	-78.556912
05208	4992165	9.462759	0.191317	1.492620	0.311338	-0.992056	-0.168181	-165.111862	-88.452743	-76.114717
05209	4992190	9.707909	0.155596	1.460784	0.320888	-1.009430	-0.158562	-167.101202	-88.317225	-74.078626
05210	4992215	9.911757	0.163878	1.446329	0.322785	-1.014418	-0.162973	-168.804480	-88.179498	-72.327906
05211	4992240	10.123895	0.109011	1.399781	0.334440	-1.013831	-0.162172	-170.265655	-88.040275	-70.818025
05212	4992265	10.337606	0.029747	1.256232	0.333557	-1.000725	-0.163439	-171.526535	-87.901793	-69.508567
05213	4992290	10.565075	0.017779	1.143405	0.341790	-0.960209	-0.170702	-172.634091	-87.768276	-68.351248
05214	4992315	10.785576	0.008354	1.074455	0.348181	-0.905904	-0.179760	-173.617230	-87.642024	-67.316978
05215	4992340	10.993643	0.005771	1.017447	0.356822	-0.838658	-0.183736	-174.493671	-87.524593	-66.388621
05216	4992365	11.174138	0.041577	0.999096	0.364848	-0.762424	-0.197810	-175.311847	-87.417653	-65.517356
05217	4992390	11.318763	0.057985	1.000526	0.378966	-0.689325	-0.198957	-176.048958	-87.320654	-64.725147
05218	4992415	11.417850	0.082576	1.039166	0.392765	-0.618239	-0.189962	-176.687433	-87.233487	-64.029164
05219	4992440	11.490794	0.108569	1.076487	0.382768	-0.561859	-0.182150	-177.260863	-87.153800	-63.400173
05220	4992465	11.550054	0.189555	1.107339	0.375348	-0.510539	-0.166573	-177.753349	-87.081077	-62.853250
05221	4992490	11.631327	0.203274	1.112712	0.363043	-0.466359	-0.153627	-178.183029	-87.014393	-62.370948
05222	4992515	11.711237	0.243138	1.118197	0.342885	-0.417449	-0.133581	-178.534491	-86.954657	-61.969313
05223	4992540	11.770544	0.284463	1.106451	0.321274	-0.382133	-0.123623	-178.850314	-86.899628	-61.606970
05224	4992565	11.782917	0.311825	1.133081	0.299640	-0.344408	-0.118622	-179.142953	-86.849888	-61.270931
05225	4992590	11.821506	0.347527	1.143788	0.288756	-0.308682	-0.106044	-179.394200	-86.805155	-60.977893
05226	4992615	11.842224	0.376461	1.137279	0.283411	-0.282651	-0.090936	-179.596409	-86.764273	-60.734163
05227	4992640	11.833956	0.392898	1.149270	0.284977	-0.265181	-0.082435	-179.774963	-86.725636	-60.514454
05228	4992665	11.835242	0.443514	1.213218	0.293197	-0.250417	-0.062646	-179.898683	-86.689072	-60.348482
05229	4992690	11.842041	0.469449	1.266425	0.306846	-0.241992	-0.046614	-179.978033	-86.653697	-60.224991
05230	4992715	11.850255	0.502342	1.302408	0.328881	-0.237226	-0.018904	-179.981625	-86.619211	-60.173615
05231	4992740	11.862558	0.465175	1.316928	0.343795	-0.234577	0.000310	-179.939715	-86.584890	-60.166287
05234	4992765	11.912147	0.474754	1.320961	0.369054	-0.228117	0.013953	-179.862096	-86.551491	-60.191107
05235	4992790	11.925970	0.548931	1.345120	0.385065	-0.224713	0.028166	-179.749686	-86.518571	-60.248485
05236	4992815	11.950740	0.616157	1.391866	0.400074	-0.224248	0.038318	-179.609929	-86.485921	-60.330455
05237	4992840	11.919072	0.666924	1.418582	0.419033	-0.221203	0.046647	-179.453299	-86.453466	-60.427267
05238	4992865	11.931337	0.684555	1.478437	0.430931	-0.223234	0.068575	-179.247112	-86.420665	-60.572026
05239	4992890	11.980707	0.710265	1.580830	0.444508	-0.232659	0.092298	-178.988721	-86.386426	-60.767150
05240	4992915	12.021902	0.706010	1.624676	0.465141	-0.242636	0.106241	-178.697889	-86.350885	-60.991119
05241	4992940	12.126484	0.635819	1.624477	0.484106	-0.256945	0.133123	-178.353382	-86.312893	-61.266869
05242	4992965	12.255655	0.520179	1.664019	0.513905	-0.272645	0.149435	-177.976291	-86.272468	-61.571004
05243	4992990	12.267993	0.456927	1.654493	0.553270	-0.293465	0.163153	-177.572986	-86.228854	-61.895774
05244	4993015	12.189637	0.470865	1.604045	0.588624	-0.310871	0.170296	-177.156688	-86.182780	-62.227748
05245	4993040	12.061706	0.491725	1.554879	0.624086	-0.321856	0.187078	-176.712846	-86.134616	-62.583014
05246	4993065	11.941906	0.427225	1.514762	0.655672	-0.331873	0.208144	-176.231703	-86.084642	-62.971152
05247	4993090	11.831692	0.314679	1.466443	0.690408	-0.335294	0.229928	-175.712222	-86.033733	-63.392757
05248	4993115	11.758507	0.166221	1.455359	0.718674	-0.344710	0.243989	-175.171015	-85.981284	-63.831302
05249	4993140	11.761240	0.031725	1.388433	0.728580	-0.352156	0.255495	-174.622062	-85.927108	-64.277024
05250	4993165	11.830213	-0.097128	1.265795	0.732187	-0.374256	0.262141	-174.077045	-85.869391	-64.718313
05251	4993190	11.900718	-0.181791	1.108798	0.739669	-0.388442	0.275667	-173.521398	-85.809143	-65.169218
05252	4993215	11.950730	-0.240148	0.896084	0.742559	-0.402214	0.283387	-172.965502	-85.746722	-65.619157
05253	4993240	12.050630	-0.266476	0.581201	0.748806	-0.404829	0.296456	-172.401949	-85.683142	-66.076750
05254	4993265	12.204107	-0.323202	0.302108	0.775178	-0.396080	0.313355	-171.815901	-85.620131	-66.553152
05255	4993290	12.345006	-0.437835	0.057363	0.797864	-0.376888	0.323172	-171.218473	-85.559262	-67.037749
05256	4993315	12.480471	-0.539977	-0.208574	0.827264	-0.347266	0.333348	-170.602000	-85.502184	-67.536421
05257	4993340	12.593693	-0.594446	-0.364148	0.866278	-0.308245	0.343719	-169.965999	-85.449722	-68.049957
05258	4993365	12.793745	-0.654337	-0.546248	0.904118	-0.262907	0.357190	-169.299312	-85.402843	-68.588874
05259	4993390	12.991108	-0.705841	-0.748258	0.936056	-0.228827	0.373991	-168.599441	-85.359786	-69.156528
05260	4993415	13.244754	-0.769979	-0.890465	0.953500	-0.186223	0.382418	-167.876337	-85.322105	-69.744189
05261	4993440	13.465286	-0.889198	-1.032879	0.974378	-0.145182	0.401470	-167.115258	-85.288746	-70.367810
05262	4993465	13.590843	-0.932727	-1.161848	0.997104	-0.101969	0.416722	-166.317633	-85.260219	-71.024864
05263	4993490	13.774456	-0.907404	-1.329028	1.022552	-0.058590	0.430672	-165.483408	-85.236463	-71.715011
05264	4993515	13.900138	-0.865712	-1.451048	1.028049	-0.017388	0.446803	-164.608329	-85.217160	-72.444585
05265	4993540	14.014759	-0.861122	-1.574527	1.020615	0.029068	0.475335	-163.674617	-85.201991	-73.234884
05266	4993565	14.068615	-0.925404	-1.670403	1.004570	0.072315	0.490023	-162.703176	-85.191048	-74.065367
05267	4993590	14.045449	-0.951065	-1.788759	0.968433	0.111130	0.501953	-161.701344	-85.183681	-74.931555
05268	4993615	13.982110	-1.003230	-1.823512	0.929734	0.154221	0.513603	-160.662731	-85.180502	-75.839461
05269	4993640	13.888438	-1.014109	-1.820962	0.884961	0.199284	0.511111	-159.612140	-85.181951	-76.766587
05270	4993665	13.739769	-0.926205	-1.796794	0.844510	0.227031	0.503086	-158.562550	-85.186097	-77.698519
05271	4993690	13.512533	-0.852126	-1.744939	0.801227	0.252564	0.500804	-157.504753	-85.192316	-78.644903
05272	4993715	13.285261	-0.810948	-1.701108	0.763294	0.272635	0.488739	-156.452618	-85.200551	-79.590322
05273	4993740	13.054991	-0.730393	-1.545526	0.736742	0.282663	0.466170	-155.431877	-85.209830	-80.508765
05274	4993765	12.799976	-0.625056	-1.383247	0.719111	0.290272	0.452939	-154.425010	-85.219539	-81.415809
05275	4993790	12.516117	-0.515405	-1.258208	0.715038	0.275566	0.437920	-153.449422	-85.226990	-82.292038
05276	4993815	12.259818	-0.393503	-1.123746	0.723404	0.256620	0.422761	-152.505328	-85.231923	-83.134754
05277	4993840	12.011977	-0.283611	-1.077104	0.731254	0.232658	0.397948	-151.618348	-85.234235	-83.919725
05278	4993865	11.814976	-0.226015	-1.013250	0.756018	0.201690	0.384201	-150.773756	-85.232623	-84.658600
05279	4993890	11.667627	-0.208082	-1.009280	0.779434	0.170279	0.354382	-149.997769	-85.228342	-85.325270
05280	4993915	11.473496	-0.212120	-1.027996	0.798552	0.135510	0.322698	-149.294807	-85.221463	-85.915235
05281	4993940	11.286317	-0.183036	-1.058568	0.817633	0.114919	0.285031	-148.667179	-85.214148	-86.427549
05282	4993965	11.090952	-0.163549	-1.119723	0.829068	0.091034	0.249407	-148.112922	-85.206153	-86.864596
05283	4993990	10.880439	-0.160499	-1.190223	0.843559	0.083619	0.215882	-147.613339	-85.199478	-87.244700
05284	4994015	10.634166	-0.171045	-1.298021	0.845641	0.075482	0.183974	-147.165215	-85.194133	-87.572205
05285	4994040	10.349304	-0.173416	-1.380530	0.848918	0.081544	0.155930	-146.754484	-85.191391	-87.862378
05286	4994065	10.053380	-0.177261	-1.448486	0.849720	0.098278	0.127222	-146.369008	-85.192746	-88.127092
05287	4994090	9.812494	-0.208577	-1.511123	0.857964	0.119796	0.106128	-145.991517	-85.198196	-88.382606
05288	4994115	9.521915	-0.273082	-1.548711	0.865935	0.151336	0.087684	-145.605192	-85.208826	-88.645205
05289	4994140	9.203741	-0.332112	-1.559719	0.889257	0.194261	0.074552	-145.193304	-85.225332	-88.930730
05290	4994165	8.910233	-0.410576	-1.533559	0.929760	0.231105	0.074318	-144.736984	-85.245997	-89.255011
05291	4994190	8.652657	-0.480560	-1.553856	0.967406	0.273959	0.073743	-144.229421	-85.271480	-89.625290
05292	4994215	8.421095	-0.583775	-1.535760	1.020058	0.322057	0.070293	-143.662279	-85.302626	-90.047172
05293	4994240	8.263910	-0.702022	-1.526940	1.067029	0.370042	0.066559	-143.039155	-85.339155	-90.519047
05294	4994265	8.179619	-0.838320	-1.491599	1.118698	0.417960	0.067042	-142.347593	-85.380657	-91.052134
05295	4994290	8.125614	-0.973189	-1.453515	1.192092	0.461732	0.065547	-141.587990	-85.426681	-91.642902
05296	4994315	8.093910	-1.029521	-1.474988	1.262405	0.497300	0.067341	-140.758849	-85.475929	-92.292729
05297	4994340	8.117193	-1.094189	-1.467218	1.338816	0.535265	0.071217	-139.855133	-85.528148	-93.006893
05298	4994365	8.209431	-1.172449	-1.500693	1.428130	0.568687	0.083759	-138.861428	-85.581895	-93.798433
05299	4994390	8.378836	-1.280832	-1.576639	1.519377	0.600191	0.088653	-137.786383	-85.637431	-94.658386
05300	4994415	8.516729	-1.353384	-1.687103	1.603384	0.636642	0.106232	-136.599968	-85.693835	-95.617387
05301	4994440	8.699951	-1.449346	-1.769697	1.687933	0.671590	0.117347	-135.313602	-85.751099	-96.664912
05302	4994465	8.885763	-1.567616	-1.793893	1.775374	0.704903	0.126968	-133.923427	-85.808894	-97.803891
05303	4994490	9.120037	-1.666116	-1.917704	1.846655	0.742539	0.136461	-132.420633	-85.867252	-99.045464
05304	4994515	9.427147	-1.788284	-1.989645	1.897663	0.770935	0.134501	-130.828627	-85.926101	-100.368606
05305	4994540	9.684813	-1.882722	-2.109396	1.935338	0.799541	0.117347	-129.169432	-85.986729	-101.754052
05306	4994565	9.948160	-1.956437	-2.271539	1.948036	0.836324	0.104742	-127.418374	-86.049106	-103.229656
05307	4994590	10.115211	-2.014800	-2.481545	1.943352	0.875346	0.091739	-125.566873	-86.113053	-104.806498
05308	4994615	10.359231	-2.024125	-2.593051	1.924602	0.919035	0.081350	-123.593956	-86.178149	-106.507214
05309	4994640	10.615766	-2.055055	-2.768372	1.889941	0.966242	0.068303	-121.494776	-86.244360	-108.339705
05310	4994665	10.792399	-2.072446	-2.919722	1.843416	1.021617	0.062442	-119.233566	-86.310654	-110.341105
05311	4994690	10.918007	-2.017228	-2.997899	1.788581	1.070829	0.062673	-116.806136	-86.374860	-112.516789
05312	4994715	11.043484	-1.892165	-2.973489	1.716566	1.120282	0.059414	-114.206699	-86.436357	-114.874690
05313	4994740	11.170363	-1.749144	-2.974274	1.645868	1.159876	0.056601	-111.454795	-86.493502	-117.395656
05314	4994765	11.364656	-1.570655	-2.916480	1.581474	1.187856	0.051822	-108.571590	-86.544953	-120.057259
05315	4994790	11.536821	-1.436144	-2.849539	1.535672	1.198324	0.053355	-105.592871	-86.588304	-122.820987
05316	4994815	11.700767	-1.231682	-2.751792	1.502223	1.199260	0.048462	-102.550338	-86.623541	-125.653082
05317	4994840	11.914271	-1.028624	-2.643365	1.504692	1.184320	0.045319	-99.493530	-86.649919	-128.499278
05318	4994865	12.015963	-0.846481	-2.448700	1.521672	1.157894	0.037925	-96.462167	-86.667915	-131.317486
05319	4994890	12.001960	-0.679348	-2.260855	1.561433	1.117448	0.027604	-93.502299	-86.678270	-134.058332
05320	4994915	11.892867	-0.608385	-2.099940	1.606914	1.067654	-0.002213	-90.646897	-86.684453	-136.687791
05321	4994940	11.878719	-0.519783	-1.879175	1.667899	1.012361	-0.055817	-87.912994	-86.691091	-139.186978
05322	4994965	12.031016	-0.449252	-1.625164	1.738081	0.936792	-0.119744	-85.338082	-86.700814	-141.516819
05323	4994990	12.041675	-0.359236	-1.424165	1.825269	0.852398	-0.194001	-82.926772	-86.716504	-143.670250
05324	4995015	12.062088	-0.146893	-1.202903	1.922224	0.765342	-0.265894	-80.667970	-86.739002	-145.656803
05325	4995040	12.177641	0.042228	-1.038832	2.016331	0.670401	-0.335510	-78.571830	-86.769553	-147.467048
05326	4995065	12.306926	0.179187	-0.897558	2.116936	0.566959	-0.399295	-76.646714	-86.808593	-149.091504
05327	4995090	12.418506	0.289020	-0.843877	2.234836	0.472618	-0.457359	-74.860238	-86.856052	-150.560128
05328	4995115	12.453197	0.454084	-0.853920	2.333287	0.385403	-0.502002	-73.196751	-86.910514	-151.891225
05329	4995140	12.402442	0.609416	-0.844100	2.431635	0.304631	-0.531497	-71.650303	-86.970569	-153.091097
05330	4995165	12.304933	0.851335	-0.803458	2.500770	0.233074	-0.552214	-70.205995	-87.035085	-154.178703
05331	4995190	12.050531	1.152407	-0.763898	2.534463	0.167226	-0.561220	-68.865833	-87.102707	-155.157130
05332	4995215	11.732900	1.507276	-0.757683	2.523719	0.110361	-0.559948	-67.624782	-87.171919	-156.037643
05333	4995240	11.391981	1.836246	-0.808526	2.468353	0.060082	-0.551140	-66.487944	-87.241965	-156.821866
05336	4995265	11.077027	2.147029	-0.793082	2.359750	0.020523	-0.544114	-65.435837	-87.312658	-157.536790
05337	4995290	10.763142	2.347611	-0.726221	2.222903	-0.020301	-0.539649	-64.477679	-87.384639	-158.177246
05338	4995315	10.526320	2.475296	-0.668815	2.079498	-0.061886	-0.541895	-63.610872	-87.458930	-158.746604
05339	4995340	10.361962	2.434855	-0.515097	1.948670	-0.111595	-0.544043	-62.865441	-87.536440	-159.213373
05340	4995365	10.380576	2.167676	-0.411062	1.826874	-0.168075	-0.553147	-62.255956	-87.618589	-159.561508
05341	4995390	10.419347	1.699392	-0.230680	1.728304	-0.234922	-0.572786	-61.804104	-87.707573	-159.765989
05342	4995415	10.433314	1.087050	-0.121140	1.645236	-0.300101	-0.595089	-61.510281	-87.803649	-159.824016
05343	4995440	10.436220	0.363403	-0.055787	1.570710	-0.372623	-0.622774	-61.410440	-87.908260	-159.698802
05344	4995465	10.395088	-0.368421	0.001576	1.510021	-0.436758	-0.648903	-61.502499	-88.020548	-159.390273
05345	4995490	10.377703	-1.027030	-0.031129	1.479915	-0.493150	-0.676702	-61.784085	-88.140142	-158.896447
05346	4995515	10.304150	-1.574075	-0.121932	1.467637	-0.549375	-0.691790	-62.320669	-88.265208	-158.149109
05347	4995540	10.181018	-2.077171	-0.187436	1.481311	-0.591828	-0.687661	-63.159859	-88.392336	-157.097310
05348	4995565	9.926009	-2.382141	-0.268232	1.514739	-0.630512	-0.685405	-64.354820	-88.521065	-155.684887
05349	4995590	9.551263	-2.573059	-0.308934	1.544785	-0.663888	-0.659969	-66.040707	-88.647503	-153.777165
05350	4995615	9.149079	-2.659569	-0.332009	1.578288	-0.689442	-0.632665	-68.312191	-88.769975	-151.278852
05351	4995640	8.708443	-2.647072	-0.344171	1.596373	-0.715070	-0.603845	-71.353071	-88.887203	-148.008647
05352	4995665	8.235949	-2.629327	-0.291272	1.601610	-0.739262	-0.577598	-75.367306	-88.997513	-143.764297
05353	4995690	7.788131	-2.639234	-0.197221	1.611366	-0.775932	-0.547559	-80.740676	-89.097967	-138.159365
05354	4995715	7.400806	-2.675343	-0.072707	1.616310	-0.813972	-0.523972	-87.794166	-89.184920	-130.873463
05355	4995740	7.056429	-2.687798	-0.045023	1.617956	-0.860698	-0.491384	-96.859860	-89.250884	-121.575172
05356	4995765	6.797243	-2.722476	0.046376	1.621743	-0.909471	-0.467274	-107.817113	-89.288905	-110.384739
05357	4995790	6.590481	-2.699401	0.140671	1.623242	-0.971195	-0.445144	-120.023218	-89.290921	-97.945194
05358	4995815	6.438800	-2.707910	0.212333	1.621488	-1.036371	-0.414966	-132.056782	-89.251361	-85.678344
05359	4995840	6.433079	-2.768615	0.251957	1.618253	-1.094274	-0.379025	-142.529075	-89.172440	-74.973269
05360	4995865	6.449129	-2.744695	0.452798	1.626358	-1.164049	-0.340443	-150.923353	-89.059118	-66.345032
05361	4995890	6.542803	-2.665052	0.530045	1.654531	-1.233238	-0.307986	-157.346963	-88.918724	-59.683417
05362	4995915	6.626970	-2.791044	0.382188	1.658951	-1.309143	-0.261496	-162.072855	-88.755218	-54.718875
05363	4995940	6.754910	-2.999859	0.288627	1.640632	-1.360509	-0.221482	-165.509422	-88.576285	-51.046333
05364	4995965	7.008012	-3.171879	0.321414	1.610208	-1.402676	-0.181119	-167.991105	-88.386011	-48.333075
05365	4995990	7.224056	-3.291557	0.317192	1.577993	-1.438268	-0.149860	-169.814613	-88.187327	-46.282642
05366	4996015	7.397429	-3.463330	0.258279	1.546380	-1.465574	-0.119551	-171.150503	-87.982544	-44.724413
05367	4996040	7.585894	-3.655801	0.237790	1.486603	-1.475658	-0.090946	-172.130142	-87.774654	-43.531038
05368	4996065	7.831940	-3.607143	0.457367	1.424846	-1.490423	-0.068562	-172.863565	-87.563615	-42.592765
05369	4996090	7.872209	-3.601193	0.341739	1.348145	-1.497546	-0.052029	-173.425771	-87.350865	-41.836728
05370	4996115	7.868296	-3.625543	0.243373	1.233390	-1.487710	-0.038354	-173.861814	-87.139099	-41.223381
05371	4996140	7.889146	-3.444121	0.258663	1.090459	-1.466571	-0.032514	-174.226026	-86.929974	-40.702295
05372	4996165	7.812776	-3.116400	0.169309	0.928281	-1.441259	-0.010662	-174.495867	-86.724005	-40.298889
05373	4996190	7.766679	-2.777715	0.060193	0.736283	-1.399280	0.010817	-174.693164	-86.523643	-39.995621
05374	4996215	7.750593	-2.417492	0.082557	0.539625	-1.350933	0.041211	-174.811773	-86.329815	-39.799440
05375	4996240	7.607566	-2.097468	0.193776	0.349355	-1.322865	0.077440	-174.860890	-86.139422	-39.700088
05376	4996265	7.356347	-1.876702	0.021673	0.176330	-1.299088	0.111082	-174.855149	-85.951988	-39.680544
05377	4996290	7.124608	-1.619975	-0.219385	0.007017	-1.247468	0.158180	-174.772689	-85.771308	-39.762232
05378	4996315	6.913443	-1.447032	-0.488575	-0.136635	-1.161997	0.215550	-174.594597	-85.602127	-39.960577
05379	4996340	6.791398	-1.417340	-0.693060	-0.247002	-1.037512	0.282733	-174.305220	-85.449620	-40.286347
05380	4996365	6.804099	-1.464901	-0.840617	-0.318068	-0.885381	0.340757	-173.917158	-85.317789	-40.721399
05381	4996390	6.922415	-1.624221	-0.892882	-0.359996	-0.728907	0.384347	-173.453444	-85.207292	-41.238465
05382	4996415	7.087290	-1.822392	-0.853579	-0.376354	-0.573877	0.402699	-172.950547	-85.118254	-41.797402
05383	4996440	7.371749	-2.019536	-0.725212	-0.375706	-0.443961	0.384079	-172.470168	-85.047537	-42.333590
05384	4996465	7.513118	-2.022961	-0.540543	-0.368710	-0.340699	0.331388	-172.064859	-84.992140	-42.793468
05385	4996490	7.539197	-1.852986	-0.404524	-0.336933	-0.278284	0.262991	-171.759428	-84.946726	-43.148549
05386	4996515	7.464056	-1.503542	-0.441946	-0.297092	-0.229125	0.203039	-171.536443	-84.909454	-43.415293
05387	4996540	7.440033	-1.098948	-0.516353	-0.248148	-0.191352	0.156176	-171.376233	-84.878381	-43.611847
05388	4996565	7.356478	-0.738728	-0.484666	-0.199088	-0.151461	0.125816	-171.249175	-84.853569	-43.768069
05389	4996590	7.194421	-0.410071	-0.474386	-0.151485	-0.130457	0.111063	-171.134615	-84.832025	-43.904901
05390	4996615	7.061179	-0.166699	-0.466988	-0.078826	-0.109254	0.118913	-170.991970	-84.813346	-44.059627
05391	4996640	6.978898	0.006772	-0.506364	-0.012937	-0.088707	0.125192	-170.827348	-84.797327	-44.226808
05392	4996665	6.891174	0.119921	-0.602995	0.049219	-0.066049	0.139365	-170.627140	-84.784135	-44.420787
05393	4996690	6.857018	0.198576	-0.667842	0.086027	-0.033879	0.154026	-170.391638	-84.775076	-44.644916
05394	4996715	6.821355	0.194678	-0.723690	0.113437	-0.005174	0.151107	-170.148602	-84.770118	-44.872803
05395	4996740	6.822684	0.157569	-0.727804	0.132793	0.030117	0.143358	-169.906745	-84.770180	-45.096590
05396	4996765	6.835036	0.114976	-0.737235	0.147195	0.055817	0.127269	-169.680397	-84.774191	-45.302731
05397	4996790	6.925945	0.093055	-0.758517	0.169040	0.080696	0.099821	-169.485781	-84.782347	-45.473864
05398	4996815	6.978389	0.134391	-0.779618	0.189887	0.105350	0.074391	-169.318492	-84.794657	-45.614681
05399	4996840	7.065190	0.172867	-0.775451	0.211988	0.115201	0.039342	-169.199873	-84.809196	-45.703320
05400	4996865	7.142657	0.314711	-0.830744	0.232288	0.128596	0.009860	-169.119548	-84.826400	-45.750584
05401	4996890	7.210377	0.450867	-0.847549	0.244477	0.128995	-0.024745	-169.090869	-84.844592	-45.744239
05402	4996915	7.261583	0.633795	-0.842930	0.264680	0.120169	-0.043359	-169.089826	-84.862107	-45.707358
05403	4996940	7.310134	0.840110	-0.860835	0.270495	0.100130	-0.052115	-169.109029	-84.876981	-45.649196
05404	4996965	7.340645	0.955705	-0.880386	0.274965	0.071335	-0.056179	-169.142886	-84.887912	-45.575680
05405	4996990	7.406940	1.041030	-0.906648	0.272852	0.034301	-0.055782	-169.187779	-84.893617	-45.491388
05406	4997015	7.442721	1.035525	-0.904004	0.268453	-0.013706	-0.046197	-169.231601	-84.892362	-45.408908
05407	4997040	7.514398	1.024624	-0.935908	0.255621	-0.068820	-0.045359	-169.293386	-84.883265	-45.310135
05408	4997065	7.563907	0.902393	-0.981458	0.222960	-0.129269	-0.039282	-169.367806	-84.865486	-45.203372
05409	4997090	7.588631	0.810334	-1.008322	0.190733	-0.191589	-0.038148	-169.462518	-84.838890	-45.080865
05410	4997115	7.588615	0.734868	-1.049765	0.154836	-0.259148	-0.036727	-169.577288	-84.802775	-44.943464
05411	4997140	7.623166	0.691130	-1.122937	0.108488	-0.318924	-0.041799	-169.722407	-84.758285	-44.782156
05412	4997165	7.615025	0.643299	-1.201472	0.058675	-0.378561	-0.034088	-169.876521	-84.705153	-44.618968
05413	4997190	7.649441	0.517028	-1.268321	0.013644	-0.430377	-0.033316	-170.046442	-84.644652	-44.446368
05414	4997215	7.670203	0.454039	-1.345559	-0.035007	-0.481510	-0.029980	-170.226705	-84.576857	-44.270445
05415	4997240	7.675745	0.386854	-1.402928	-0.078253	-0.522137	-0.029396	-170.418848	-84.503205	-44.088707
05416	4997265	7.675898	0.388467	-1.461349	-0.129285	-0.561656	-0.028181	-170.621018	-84.423881	-43.904215
05417	4997290	7.721394	0.328136	-1.515969	-0.172192	-0.588606	-0.020686	-170.819395	-84.340513	-43.729684
05418	4997315	7.757165	0.243019	-1.554761	-0.207458	-0.617246	-0.018023	-171.019200	-84.253026	-43.558850
05419	4997340	7.806563	0.068475	-1.583201	-0.253679	-0.633793	-0.012343	-171.216495	-84.162962	-43.397086
05420	4997365	7.880782	-0.126580	-1.640914	-0.291157	-0.646718	-0.027539	-171.437061	-84.071337	-43.217299
05421	4997390	7.901326	-0.274992	-1.678595	-0.334175	-0.651808	-0.041391	-171.677273	-83.979209	-43.023923
05422	4997415	7.942495	-0.426177	-1.706931	-0.363006	-0.650700	-0.054435	-171.931393	-83.887465	-42.820770
05423	4997440	8.015271	-0.556858	-1.702051	-0.376836	-0.636907	-0.077711	-172.209349	-83.797992	-42.595512
05424	4997465	8.030289	-0.644893	-1.704980	-0.377742	-0.620467	-0.090361	-172.493776	-83.710977	-42.363837
05425	4997490	8.061682	-0.805883	-1.676209	-0.369431	-0.600088	-0.107506	-172.788495	-83.627045	-42.120571
05426	4997515	8.137099	-0.957329	-1.640795	-0.340214	-0.573878	-0.127223	-173.092170	-83.547092	-41.864142
05427	4997540	8.234472	-1.129491	-1.576202	-0.304988	-0.539377	-0.151847	-173.410265	-83.472261	-41.587984
05428	4997565	8.318036	-1.300314	-1.501005	-0.264986	-0.509319	-0.185949	-173.753820	-83.402076	-41.280389
05429	4997590	8.423570	-1.430083	-1.372482	-0.229533	-0.480241	-0.217921	-174.120778	-83.336299	-40.944079
05430	4997615	8.479555	-1.558412	-1.255972	-0.184986	-0.458032	-0.258267	-174.520048	-83.274046	-40.568882
05431	4997640	8.609796	-1.706199	-1.103595	-0.138700	-0.438558	-0.302018	-174.956616	-83.214783	-40.149288
05432	4997665	8.682239	-1.816771	-0.948468	-0.075412	-0.425465	-0.339161	-175.419666	-83.157450	-39.693842
05433	4997690	8.799019	-1.831002	-0.842148	-0.009802	-0.412551	-0.387573	-175.921780	-83.102031	-39.189531
05434	4997715	8.888120	-1.844001	-0.682716	0.057267	-0.400732	-0.423920	-176.447406	-83.048154	-38.651926
05435	4997740	9.017229	-1.847281	-0.545825	0.122866	-0.396027	-0.461541	-176.999577	-82.994605	-38.077924
05438	4997765	9.135301	-1.845108	-0.403606	0.189972	-0.393817	-0.490776	-177.567265	-82.940891	-37.478535
05439	4997790	9.337284	-1.829421	-0.209417	0.266980	-0.394796	-0.511032	-178.138379	-82.886420	-36.864508
05440	4997815	9.507747	-1.818955	-0.075102	0.335607	-0.394882	-0.531681	-178.713554	-82.831310	-36.236543
05441	4997840	9.693431	-1.706810	0.087431	0.399342	-0.407273	-0.538330	-179.278678	-82.773620	-35.609295
05442	4997865	9.910910	-1.667264	0.151478	0.449735	-0.420976	-0.547999	-179.837986	-82.713209	-34.980551
05443	4997890	10.095310	-1.598879	0.244824	0.493181	-0.421459	-0.547455	179.619331	-82.651967	-34.362209
05444	4997915	10.315456	-1.556688	0.348724	0.519487	-0.426665	-0.539874	179.099069	-82.589318	-33.762723
05445	4997940	10.582491	-1.574797	0.393978	0.542225	-0.429933	-0.527114	178.604923	-82.525505	-33.186071
05446	4997965	10.860514	-1.632707	0.421897	0.555201	-0.430349	-0.517157	178.132514	-82.461044	-32.629384
05447	4997990	11.098579	-1.693422	0.456365	0.578241	-0.421791	-0.504978	177.684825	-82.397291	-32.094223
05448	4998015	11.307855	-1.784115	0.425638	0.590798	-0.410509	-0.483301	177.270145	-82.334819	-31.590603
05449	4998040	11.533692	-1.902151	0.362948	0.592736	-0.390114	-0.468695	176.876837	-82.274841	-31.108066
05450	4998065	11.726464	-2.001037	0.318908	0.594130	-0.360718	-0.463429	176.494091	-82.218675	-30.635921
05451	4998090	11.908320	-2.088785	0.237698	0.601503	-0.331175	-0.444031	176.136583	-82.166499	-30.188123
05452	4998115	12.077885	-2.136604	0.139289	0.601921	-0.293157	-0.423490	175.803302	-82.119662	-29.764801
05453	4998140	12.197863	-2.170675	0.048928	0.592946	-0.246570	-0.403795	175.489066	-82.079301	-29.361826
05454	4998165	12.348219	-2.227972	-0.085367	0.574742	-0.198209	-0.377888	175.198130	-82.045855	-28.984974
05455	4998190	12.440700	-2.261951	-0.191697	0.561988	-0.154629	-0.358412	174.924008	-82.018611	-28.626916
05456	4998215	12.592484	-2.352125	-0.363339	0.541580	-0.106272	-0.328779	174.675110	-81.998492	-28.297400
05457	4998240	12.683709	-2.387289	-0.520157	0.523551	-0.061789	-0.305091	174.444093	-81.984778	-27.988396
05458	4998265	12.783169	-2.451346	-0.683718	0.504950	-0.011860	-0.284967	174.226536	-81.978297	-27.695669
05459	4998290	12.913098	-2.442406	-0.866957	0.478968	0.034067	-0.263497	174.022473	-81.978524	-27.420324
05460	4998315	13.001511	-2.492798	-1.010580	0.451805	0.076810	-0.245273	173.828795	-81.985053	-27.159552
05461	4998340	13.105167	-2.508710	-1.170014	0.416787	0.122523	-0.222233	173.647302	-81.998261	-26.916003
05462	4998365	13.200672	-2.473705	-1.339892	0.374974	0.166458	-0.206916	173.469523	-82.017861	-26.682263
05463	4998390	13.276834	-2.470313	-1.509936	0.326790	0.213490	-0.178142	173.307454	-82.044533	-26.471368
05464	4998415	13.373685	-2.446322	-1.677202	0.279877	0.259414	-0.158997	173.151894	-82.078049	-26.274017
05465	4998440	13.422238	-2.437555	-1.815339	0.215086	0.303967	-0.138602	173.000242	-82.118108	-26.089826
05466	4998465	13.462608	-2.365558	-1.945257	0.141792	0.350200	-0.118019	172.851598	-82.165036	-25.919290
05467	4998490	13.586953	-2.274382	-2.052522	0.066376	0.400236	-0.091863	172.710715	-82.219486	-25.767512
05468	4998515	13.691895	-2.194429	-2.119961	-0.001100	0.445494	-0.072248	172.573059	-82.280745	-25.628957
05469	4998540	13.792725	-2.119894	-2.200692	-0.055669	0.483286	-0.041863	172.451516	-82.347825	-25.514379
05470	4998565	13.881304	-2.010799	-2.313233	-0.118329	0.526226	-0.022458	172.333405	-82.421338	-25.412337
05471	4998590	13.964259	-1.917033	-2.385909	-0.176667	0.556958	-0.005996	172.217960	-82.499502	-25.321431
05472	4998615	14.107831	-1.772425	-2.442529	-0.235434	0.591232	0.011660	172.106615	-82.582918	-25.243377
05473	4998640	14.245775	-1.636258	-2.455300	-0.274093	0.617631	0.030504	172.003567	-82.670366	-25.179077
05474	4998665	14.339881	-1.461302	-2.538333	-0.314541	0.646439	0.040130	171.898852	-82.762077	-25.118952
05475	4998690	14.509502	-1.362161	-2.573826	-0.344914	0.665967	0.045851	171.790941	-82.856659	-25.060003
05476	4998715	14.718993	-1.248059	-2.574669	-0.369217	0.684527	0.051361	171.681215	-82.954036	-25.002967
05477	4998740	14.825411	-1.084226	-2.623188	-0.392257	0.698747	0.054158	171.565924	-83.053408	-24.943439
05478	4998765	14.977063	-0.884994	-2.578645	-0.407487	0.709969	0.053655	171.443326	-83.154343	-24.878761
05479	4998790	14.991124	-0.673271	-2.573953	-0.417250	0.713597	0.051552	171.313344	-83.255730	-24.808070
05480	4998815	14.949074	-0.299028	-2.615266	-0.432138	0.717563	0.054349	171.181553	-83.357781	-24.737948
05481	4998840	14.791112	0.025488	-2.577017	-0.451967	0.723782	0.057988	171.046287	-83.460712	-24.666973
05482	4998865	14.546249	0.298973	-2.527100	-0.486046	0.736489	0.062332	170.905716	-83.565518	-24.595585
05483	4998890	14.279455	0.652321	-2.472909	-0.541954	0.740633	0.069749	170.762167	-83.671059	-24.529275
05484	4998915	13.931551	1.037397	-2.449290	-0.619474	0.745075	0.070520	170.604682	-83.777283	-24.460355
05485	4998940	13.633095	1.422294	-2.384371	-0.714185	0.751709	0.078452	170.437803	-83.884553	-24.395419
05486	4998965	13.283830	1.708587	-2.435424	-0.828702	0.765707	0.081711	170.251411	-83.993855	-24.327369
05487	4998990	12.921020	2.113213	-2.484782	-0.953216	0.788963	0.082845	170.038322	-84.106442	-24.250423
05488	4999015	12.667818	2.381117	-2.406978	-1.048722	0.812713	0.076284	169.791497	-84.222233	-24.153545
05489	4999040	12.450434	2.658698	-2.322545	-1.123536	0.837502	0.068678	169.508775	-84.341221	-24.031168
05490	4999065	12.245795	2.997045	-2.352091	-1.196902	0.853959	0.071888	169.206890	-84.462548	-23.900122
05491	4999090	12.083690	3.391465	-2.272517	-1.250159	0.877435	0.083558	168.898144	-84.587423	-23.769874
05492	4999115	11.940862	3.532108	-2.366301	-1.286138	0.903564	0.103173	168.596400	-84.716497	-23.652049
05493	4999140	11.683634	3.595733	-2.444676	-1.366071	0.941213	0.127886	168.298237	-84.851457	-23.549155
05494	4999165	11.582189	3.990220	-2.365132	-1.434888	0.985957	0.151600	168.002134	-84.993336	-23.458248
05495	4999190	11.387908	4.156165	-2.247681	-1.463745	1.026153	0.179121	167.721577	-85.141630	-23.387113
05496	4999215	11.159034	4.109115	-2.157580	-1.461960	1.061463	0.195721	167.445871	-85.295386	-23.320765
05497	4999240	10.905446	4.038947	-2.152690	-1.452389	1.101031	0.207485	167.164252	-85.454971	-23.246965
05498	4999265	10.683739	4.120004	-2.072885	-1.426075	1.138675	0.204219	166.851744	-85.619671	-23.138418
05499	4999290	10.530298	4.128806	-1.857738	-1.402126	1.172782	0.206980	166.516185	-85.789166	-23.003339
05500	4999315	10.285128	4.220688	-1.791145	-1.361882	1.193799	0.196609	166.136906	-85.961206	-22.818807
05501	4999340	10.064806	4.240060	-1.801841	-1.306168	1.214508	0.185086	165.705592	-86.135586	-22.574025
05502	4999365	9.848662	4.252447	-1.804591	-1.257263	1.233856	0.171161	165.208717	-86.312006	-22.256571
05503	4999390	9.693149	4.319828	-1.783234	-1.208166	1.260972	0.178944	164.679083	-86.492272	-21.899311
05504	4999415	9.614495	4.238628	-1.784884	-1.163110	1.278583	0.195970	164.137285	-86.675438	-21.523569
05505	4999440	9.523187	4.100861	-1.697698	-1.114685	1.288102	0.203771	163.561046	-86.859965	-21.106354
05506	4999465	9.530934	3.831108	-1.652099	-1.048007	1.285460	0.212103	162.956946	-87.044222	-20.651747
05507	4999490	9.546860	3.422656	-1.658690	-0.996306	1.275387	0.214805	162.306833	-87.226941	-20.143730
05508	4999515	9.635833	2.949785	-1.713419	-0.964605	1.275166	0.211573	161.570972	-87.409196	-19.545483
05509	4999540	9.782513	2.522012	-1.702802	-0.930612	1.256432	0.206848	160.744449	-87.588266	-18.851620
05510	4999565	9.920019	2.258180	-1.771357	-0.913068	1.238551	0.189747	159.762497	-87.763599	-17.999775
05511	4999590	10.060156	2.038190	-1.774704	-0.922216	1.223112	0.179677	158.608552	-87.935680	-16.977229
05512	4999615	10.157893	1.946104	-1.808125	-0.946929	1.193749	0.169176	157.261344	-88.102447	-15.765025
05513	4999640	10.219579	1.820819	-1.766024	-0.977755	1.162479	0.171626	155.734396	-88.264120	-14.377454
05514	4999665	10.338004	1.717800	-1.830064	-1.016981	1.134349	0.181183	154.012454	-88.421418	-12.800547
05515	4999690	10.492139	1.657258	-1.807562	-1.080305	1.105925	0.198738	152.084064	-88.574697	-11.026310
05516	4999715	10.606260	1.554014	-1.802572	-1.141068	1.069624	0.215686	149.915750	-88.722872	-9.020974
05517	4999740	10.979562	1.629601	-1.798243	-1.208391	1.034152	0.235385	147.451815	-88.866123	-6.729642
05518	4999765	11.292173	1.695377	-1.749918	-1.284439	0.995749	0.271270	144.720962	-89.005352	-4.182354
05519	4999790	11.588071	1.658029	-1.698077	-1.362493	0.951097	0.292726	141.555257	-89.138700	-1.211444
05520	4999815	11.828769	1.623258	-1.606370	-1.437328	0.893093	0.291440	137.698995	-89.262441	2.439205
05521	4999840	11.759767	1.590091	-1.559998	-1.511089	0.832409	0.291793	132.942702	-89.375868	6.979348
05522	4999865	11.682260	1.536079	-1.440736	-1.570424	0.761909	0.267518	126.844439	-89.474582	12.852937
05523	4999890	11.661570	1.560635	-1.414066	-1.611993	0.688387	0.242430	119.100064	-89.556781	20.366658
05524	4999915	11.449424	1.590840	-1.374177	-1.645258	0.623645	0.221263	109.370264	-89.621883	29.860952
05525	4999940	11.235934	1.723848	-1.282295	-1.658763	0.552088	0.206232	97.920512	-89.668858	41.073296
05526	4999965	10.946770	1.835020	-1.220941	-1.648997	0.481968	0.223610	85.376911	-89.702580	53.380860
05527	4999990	10.691896	1.967939	-1.097091	-1.627444	0.409273	0.285070	72.027060	-89.731018	66.497735
05528	5000015	10.461662	1.870069	-1.044345	-1.572041	0.327236	0.365842	57.414293	-89.758513	80.885391
05529	5000040	10.355031	1.623532	-0.945567	-1.514820	0.246175	0.460150	39.755605	-89.785059	98.327213
05530	5000065	10.336348	1.225879	-0.860522	-1.474285	0.153290	0.541906	17.703581	-89.803869	120.168178
05531	5000090	10.424767	0.763249	-0.697283	-1.433214	0.046012	0.583257	-7.134221	-89.805719	144.800806
05532	5000115	10.658046	0.353051	-0.605580	-1.409377	-0.084184	0.600770	-31.555584	-89.789047	169.020367
05533	5000140	11.017156	0.023264	-0.672878	-1.396319	-0.229520	0.575368	-52.951788	-89.758278	-169.783296
05534	5000165	11.424757	-0.199165	-0.793000	-1.383532	-0.367972	0.510557	-71.035177	-89.718719	-151.897921
05535	5000190	11.666185	-0.269861	-1.012308	-1.351404	-0.496383	0.431848	-86.752415	-89.671872	-136.374061
05536	5000215	11.911946	-0.234676	-1.240513	-1.322915	-0.585176	0.341276	-100.121829	-89.618093	-123.193969
05537	5000240	12.029475	-0.199650	-1.417013	-1.286919	-0.664226	0.252968	-111.765067	-89.557051	-111.734795
05540	5000265	12.047855	-0.001369	-1.494676	-1.237368	-0.703144	0.186688	-121.424289	-89.487898	-102.252506
05541	5000290	11.982315	0.214934	-1.597624	-1.182862	-0.711148	0.134383	-129.195119	-89.413104	-94.650782
05542	5000315	11.807820	0.388369	-1.646193	-1.131531	-0.686188	0.102827	-135.199780	-89.335913	-88.807939
05543	5000340	11.535516	0.575595	-1.686904	-1.108860	-0.635797	0.087708	-139.697661	-89.260050	-84.468585
05544	5000365	11.176159	0.788429	-1.591988	-1.113065	-0.556427	0.094309	-142.823592	-89.189128	-81.501838
05545	5000390	10.879950	0.854186	-1.501535	-1.136856	-0.463379	0.119032	-144.770041	-89.125178	-79.718059
05546	5000415	10.667420	0.817813	-1.336958	-1.185585	-0.353423	0.145955	-145.731314	-89.071319	-78.926596
05547	5000440	10.482225	0.832053	-1.070009	-1.241828	-0.229500	0.177889	-145.801151	-89.029467	-79.034673
05548	5000465	10.298248	0.929664	-0.683157	-1.280922	-0.108677	0.209205	-145.108539	-88.999316	-79.910913
05549	5000490	10.155365	0.906158	-0.278084	-1.323339	0.002934	0.243868	-143.718901	-88.979007	-81.490370
05550	5000515	10.005516	0.812586	0.118736	-1.357784	0.092220	0.264657	-141.828786	-88.966279	-83.575389
05551	5000540	9.878953	0.843693	0.640788	-1.367118	0.160067	0.285152	-139.523075	-88.957861	-86.077356
05552	5000565	9.776994	0.833275	1.218645	-1.359779	0.196032	0.298450	-136.991556	-88.950113	-88.804123
05553	5000590	9.728815	0.713211	1.703078	-1.334950	0.191249	0.309189	-134.468680	-88.938613	-91.518696
05554	5000615	9.686081	0.576573	2.198123	-1.286375	0.156047	0.308019	-132.205526	-88.921687	-93.966600
05555	5000640	9.673922	0.443084	2.584252	-1.235004	0.085028	0.296117	-130.473947	-88.897749	-95.875445
05556	5000665	9.623471	0.341546	2.881440	-1.182713	0.001247	0.278196	-129.368690	-88.867187	-97.150376
05557	5000690	9.669713	0.310513	3.093944	-1.129438	-0.097148	0.249824	-128.984417	-88.830554	-97.696558
05558	5000715	9.633589	0.344276	3.252084	-1.079519	-0.213251	0.226963	-129.331306	-88.785950	-97.504295
05559	5000740	9.541291	0.453980	3.325473	-1.033680	-0.330661	0.210154	-130.307938	-88.732386	-96.675553
05560	5000765	9.497411	0.624442	3.347234	-0.986396	-0.446131	0.194819	-131.803027	-88.669238	-95.321427
05561	5000790	9.492119	0.617839	3.268898	-0.937432	-0.563851	0.179054	-133.726593	-88.595405	-93.531648
05562	5000815	9.495246	0.544229	3.080022	-0.901884	-0.664839	0.172305	-135.875111	-88.510592	-91.511683
05563	5000840	9.460311	0.529082	2.715899	-0.865692	-0.750384	0.175767	-138.076641	-88.414603	-89.433427
05564	5000865	9.340053	0.584027	2.362686	-0.848122	-0.812666	0.179873	-140.208282	-88.309443	-87.422469
05565	5000890	9.219583	0.583837	2.063697	-0.856807	-0.850687	0.195308	-142.147529	-88.196680	-85.605127
05566	5000915	9.103118	0.566937	1.812480	-0.883128	-0.863317	0.196435	-143.895593	-88.080660	-83.982698
05567	5000940	8.948275	0.642247	1.534999	-0.912460	-0.853984	0.210521	-145.386682	-87.963116	-82.621518
05568	5000965	8.859108	0.622242	1.376832	-0.964190	-0.838319	0.218280	-146.671220	-87.845711	-81.474344
05569	5000990	8.809746	0.558121	1.245065	-1.019492	-0.814522	0.234126	-147.743115	-87.729107	-80.547810
05570	5001015	8.757601	0.514487	1.147908	-1.080275	-0.778796	0.251134	-148.611605	-87.614987	-79.833447
05571	5001040	8.730146	0.470750	1.082639	-1.144030	-0.744477	0.267799	-149.312207	-87.503454	-79.296247
05572	5001065	8.653003	0.362311	1.026446	-1.204240	-0.717710	0.296991	-149.846581	-87.392871	-78.934029
05573	5001090	8.516774	0.359745	0.985134	-1.269165	-0.690167	0.318858	-150.254981	-87.284014	-78.707198
05574	5001115	8.406560	0.285640	0.951625	-1.334021	-0.670322	0.334697	-150.579463	-87.176455	-78.573614
05575	5001140	8.271485	0.207267	0.959180	-1.402091	-0.651670	0.344235	-150.848084	-87.070515	-78.505762
05576	5001165	8.062129	0.140069	0.922981	-1.462139	-0.643895	0.354280	-151.079501	-86.964837	-78.483770
05577	5001190	7.931444	0.136086	0.873733	-1.506665	-0.634352	0.363878	-151.274707	-86.859690	-78.504428
05578	5001215	7.751155	0.145975	0.820495	-1.539315	-0.619510	0.378001	-151.419430	-86.755454	-78.580274
05579	5001240	7.643920	0.150425	0.751418	-1.557800	-0.607181	0.395616	-151.512448	-86.651562	-78.710629
05580	5001265	7.470522	0.120382	0.691398	-1.565060	-0.589365	0.409943	-151.557517	-86.548943	-78.890074
05581	5001290	7.412911	0.105653	0.591698	-1.564432	-0.572762	0.420145	-151.567412	-86.447726	-79.104688
05582	5001315	7.361028	0.103609	0.405643	-1.569660	-0.558725	0.434430	-151.540391	-86.347313	-79.356999
05583	5001340	7.343367	0.065609	0.287268	-1.607332	-0.548429	0.427711	-151.528417	-86.248636	-79.599732
05584	5001365	7.387668	0.078296	0.200978	-1.635553	-0.537180	0.416321	-151.536804	-86.152153	-79.826139
05585	5001390	7.456653	0.049736	0.125135	-1.659824	-0.539750	0.385546	-151.612696	-86.057456	-79.988393
05586	5001415	7.463914	0.203985	0.061839	-1.688911	-0.546362	0.357147	-151.751716	-85.963889	-80.091493
05587	5001440	7.475224	0.301880	0.001028	-1.718749	-0.557592	0.328815	-151.954336	-85.870827	-80.135196
05588	5001465	7.500239	0.440787	-0.010463	-1.738350	-0.564400	0.304552	-152.204026	-85.778543	-80.134525
05589	5001490	7.534880	0.592052	-0.004587	-1.761361	-0.579045	0.290992	-152.487344	-85.685303	-80.103437
05590	5001515	7.470396	0.709059	-0.033464	-1.770832	-0.595774	0.284136	-152.790867	-85.590391	-80.053368
05591	5001540	7.425146	0.820488	-0.046402	-1.789028	-0.600710	0.286086	-153.090540	-85.494689	-80.009843
05592	5001565	7.269559	0.834301	-0.050438	-1.808602	-0.609497	0.283900	-153.396371	-85.397986	-79.962947
05593	5001590	7.006776	0.910179	-0.104818	-1.817438	-0.613145	0.272526	-153.716789	-85.301523	-79.902678
05594	5001615	6.733055	0.997202	-0.188366	-1.813552	-0.602857	0.256475	-154.045841	-85.207385	-79.833103
05595	5001640	6.605073	0.950690	-0.247000	-1.800102	-0.588290	0.233339	-154.389699	-85.116519	-79.746803
05596	5001665	6.376474	0.873933	-0.299224	-1.757494	-0.562163	0.206417	-154.741261	-85.030646	-79.646634
05597	5001690	6.186468	0.793073	-0.363354	-1.700950	-0.529296	0.182201	-155.090140	-84.950457	-79.541014
05598	5001715	6.067908	0.662553	-0.389059	-1.622915	-0.495004	0.153206	-155.439993	-84.876429	-79.423102
05599	5001740	5.975381	0.549726	-0.357620	-1.534815	-0.453043	0.115597	-155.797468	-84.810019	-79.284933
05600	5001765	6.005450	0.516399	-0.283329	-1.433312	-0.416051	0.091556	-156.145061	-84.749776	-79.142074
05601	5001790	6.017698	0.443443	-0.268936	-1.331193	-0.383304	0.071518	-156.480630	-84.694905	-78.996588
05602	5001815	5.926721	0.382957	-0.270541	-1.221693	-0.355086	0.048682	-156.810654	-84.644982	-78.840824
05603	5001840	5.845477	0.374719	-0.273308	-1.117711	-0.333899	0.029618	-157.135466	-84.598821	-78.675404
05604	5001865	5.709315	0.335197	-0.366492	-1.013160	-0.299320	0.000705	-157.461336	-84.558740	-78.493867
05605	5001890	5.617290	0.324601	-0.470198	-0.910516	-0.258951	-0.023204	-157.779019	-84.525215	-78.305772
05606	5001915	5.531875	0.294419	-0.476975	-0.812029	-0.218241	-0.041637	-158.082310	-84.498007	-78.117874
05607	5001940	5.462948	0.218848	-0.493223	-0.724252	-0.175631	-0.070493	-158.387059	-84.477887	-77.915953
05608	5001965	5.471159	0.126817	-0.528061	-0.643154	-0.138479	-0.093426	-158.689928	-84.463819	-77.704243
05609	5001990	5.548119	0.005819	-0.537713	-0.578243	-0.106457	-0.111026	-158.989461	-84.454831	-77.486540
05610	5002015	5.657999	-0.155200	-0.512954	-0.521094	-0.087060	-0.121944	-159.284882	-84.448905	-77.264663
05611	5002040	5.722493	-0.291411	-0.500075	-0.468186	-0.074072	-0.141969	-159.593127	-84.445598	-77.022363
05612	5002065	5.827091	-0.405432	-0.541599	-0.426549	-0.064547	-0.151668	-159.903657	-84.443926	-76.771774
05613	5002090	5.871130	-0.520747	-0.597770	-0.396726	-0.063922	-0.166093	-160.229407	-84.442907	-76.501601
05614	5002115	5.933092	-0.631924	-0.660554	-0.383732	-0.059941	-0.180525	-160.571248	-84.442983	-76.213316
05615	5002140	5.989616	-0.729280	-0.740534	-0.368059	-0.053065	-0.189418	-160.919909	-84.444224	-75.915999
05616	5002165	6.044812	-0.794978	-0.823094	-0.366029	-0.038037	-0.189918	-161.261992	-84.447352	-75.624999
05617	5002190	6.103843	-0.911925	-0.815471	-0.365587	-0.016637	-0.192086	-161.597419	-84.453317	-75.340625
05618	5002215	6.158805	-1.008181	-0.823702	-0.357693	0.005716	-0.194013	-161.924807	-84.462266	-75.063128
05619	5002240	6.201396	-1.086563	-0.829286	-0.343515	0.026366	-0.201717	-162.252676	-84.474200	-74.783179
05620	5002265	6.276920	-1.132204	-0.766943	-0.328261	0.051872	-0.202060	-162.568798	-84.489480	-74.512844
05621	5002290	6.375870	-1.217595	-0.736608	-0.300881	0.073698	-0.207888	-162.881330	-84.507850	-74.242183
05622	5002315	6.480237	-1.323744	-0.678428	-0.272553	0.093044	-0.212497	-163.189943	-84.528937	-73.971330
05623	5002340	6.517288	-1.356879	-0.646647	-0.244305	0.109908	-0.216097	-163.494740	-84.552332	-73.700317
05624	5002365	6.601155	-1.359849	-0.588141	-0.223123	0.122094	-0.220819	-163.800678	-84.577456	-73.425122
05625	5002390	6.676714	-1.346413	-0.511003	-0.202616	0.133716	-0.216918	-164.095847	-84.603888	-73.157805
05626	5002415	6.701386	-1.327388	-0.451157	-0.188249	0.137232	-0.208049	-164.377216	-84.630345	-72.902237
05627	5002440	6.776965	-1.291989	-0.360659	-0.178887	0.133656	-0.195341	-164.642614	-84.655694	-72.661430
05628	5002465	6.878645	-1.326640	-0.290309	-0.172655	0.118764	-0.190133	-164.907758	-84.678685	-72.419992
05629	5002490	6.969306	-1.331127	-0.203915	-0.169967	0.097293	-0.180444	-165.168737	-84.698244	-72.182359
05630	5002515	7.084820	-1.323188	-0.126783	-0.167678	0.072624	-0.171259	-165.427025	-84.713963	-71.947051
05631	5002540	7.259584	-1.258913	-0.041419	-0.156167	0.042255	-0.161615	-165.682342	-84.725015	-71.713131
05632	5002565	7.384880	-1.206852	0.003974	-0.137077	0.000951	-0.151013	-165.935570	-84.729863	-71.478565
05633	5002590	7.554263	-1.112198	0.060172	-0.134996	-0.034299	-0.135604	-166.178785	-84.729186	-71.253756
05634	5002615	7.678239	-1.076506	0.069669	-0.123671	-0.081062	-0.126712	-166.423883	-84.721623	-71.025373
05635	5002640	7.805026	-1.003682	0.077957	-0.115792	-0.120676	-0.119184	-166.670043	-84.708189	-70.794839
05636	5002665	7.988233	-0.941883	0.096895	-0.107537	-0.160252	-0.105371	-166.906895	-84.688695	-70.572459
05637	5002690	8.132964	-0.855265	0.094604	-0.088865	-0.195870	-0.095096	-167.136197	-84.663815	-70.354967
05638	5002715	8.301039	-0.796215	0.101545	-0.078699	-0.227171	-0.079878	-167.349703	-84.634016	-70.151816
05639	5002740	8.492626	-0.739702	0.068617	-0.076614	-0.257227	-0.067258	-167.551820	-84.599540	-69.959846
05642	5002765	8.641412	-0.703992	0.070191	-0.083834	-0.280584	-0.048567	-167.732447	-84.561163	-69.790490
05643	5002790	8.835654	-0.706669	0.043713	-0.094861	-0.306055	-0.038598	-167.905611	-84.518869	-69.630206
05644	5002815	9.035514	-0.655719	0.001493	-0.119881	-0.324026	-0.024681	-168.065054	-84.473612	-69.487241
05645	5002840	9.193996	-0.592407	-0.006184	-0.139360	-0.339770	-0.015295	-168.216131	-84.425822	-69.355528
05646	5002865	9.333122	-0.566307	-0.004659	-0.154492	-0.350662	-0.009876	-168.362442	-84.376313	-69.230771
05647	5002890	9.470820	-0.541695	0.015378	-0.178759	-0.360318	0.003842	-168.493248	-84.325025	-69.125077
05648	5002915	9.579524	-0.548697	0.048682	-0.188270	-0.376774	0.013936	-168.613727	-84.271132	-69.031065
05649	5002940	9.656568	-0.536453	0.088634	-0.200133	-0.378302	0.017273	-168.729771	-84.216897	-68.943265
05650	5002965	9.729668	-0.488321	0.072877	-0.214650	-0.382416	0.026558	-168.834347	-84.161809	-68.869074
