// General information: 
//  MT Manager version: 2020.5.0 
//  XDA version: 2020.5.0 build 5678 rev 108182 built on 2021-02-04
// Device information: 
//  DeviceId: 077822CD
//  ProductCode: MTi-G-710-2A8G4
//  Firmware Version: 1.7.2
//  Hardware Version: 3.0.0
// Device settings: 
//  Filter Profile: General(1.19)
//  Option Flags: Orientation Smoother Disabled, Position/Velocity Smoother Disabled, Continuous Zero Rotation Update Disabled, AHS Disabled, ICC Disabled
//  GNSS Platform: Portable
// Coordinate system: ENU
PacketCounter	SampleTimeFine	Acc_X	Acc_Y	Acc_Z	FreeAcc_E	FreeAcc_N	FreeAcc_U	Gyr_X	Gyr_Y	Gyr_Z	Mag_X	Mag_Y	Mag_Z	VelInc_X	VelInc_Y	VelInc_Z	OriInc_q0	OriInc_q1	OriInc_q2	OriInc_q3	Quat_q0	Quat_q1	Quat_q2	Quat_q3	Roll	Pitch	Yaw	Mat[1][1]	Mat[2][1]	Mat[3][1]	Mat[1][2]	Mat[2][2]	Mat[3][2]	Mat[1][3]	Mat[2][3]	Mat[3][3]
36625	31484574	-2.552999	0.928847	9.436652	0.035405	0.013776	0.018522	0.004637	0.012186	0.004686	-0.178665	0.247862	-1.465135	-0.006382	0.002322	0.023592	1.000000	0.000006	0.000015	0.000006	-0.969530	-0.072330	-0.120587	0.200597	5.464054	15.238808	-22.647806	0.890439	-0.371526	-0.262843	0.406414	0.909058	0.091873	0.204806	-0.188630	0.960455
36626	31484599	-2.566824	0.904077	9.436568	0.013047	-0.003627	0.019798	0.003307	0.011148	0.002731				-0.006417	0.002260	0.023592	1.000000	0.000004	0.000014	0.000003	-0.969528	-0.072335	-0.120594	0.200598	5.464495	15.239754	-22.647785	0.890435	-0.371524	-0.262859	0.406417	0.909056	0.091880	0.204818	-0.188643	0.960450
36627	31484624	-2.557203	0.879270	9.443140	0.013040	-0.030924	0.021302	-0.002190	0.010075	0.002500				-0.006393	0.002198	0.023608	1.000000	-0.000003	0.000013	0.000003	-0.969528	-0.072333	-0.120601	0.200598	5.464136	15.240550	-22.647813	0.890432	-0.371523	-0.262872	0.406417	0.909057	0.091874	0.204832	-0.188643	0.960446
36628	31484649	-2.575186	0.855827	9.459015	-0.009185	-0.048605	0.039122	0.001854	0.008014	-0.003113				-0.006438	0.002140	0.023648	1.000000	0.000002	0.000010	-0.000004	-0.969525	-0.072335	-0.120605	0.200605	5.464131	15.241129	-22.648699	0.890424	-0.371536	-0.262882	0.406432	0.909050	0.091873	0.204839	-0.188650	0.960444
36629	31484674	-2.536629	0.842041	9.457660	0.019516	-0.075487	0.026426	0.004108	0.011636	0.001609	-0.178230	0.248811	-1.465627	-0.006341	0.002105	0.023644	1.000000	0.000005	0.000015	0.000002	-0.969524	-0.072341	-0.120613	0.200607	5.464645	15.242159	-22.648835	0.890418	-0.371536	-0.262899	0.406437	0.909047	0.091882	0.204850	-0.188665	0.960438
36630	31484699	-2.539233	0.904075	9.432585	0.037255	-0.013243	0.008729	-0.000770	0.007440	0.000194				-0.006348	0.002260	0.023582	1.000000	-0.000001	0.000009	0.000000	-0.969522	-0.072340	-0.120617	0.200610	5.464390	15.242611	-22.649241	0.890414	-0.371542	-0.262907	0.406444	0.909045	0.091877	0.204858	-0.188665	0.960437
36631	31484724	-2.547433	0.950903	9.426088	0.047696	0.033462	0.008947	0.003284	0.007832	0.001104				-0.006368	0.002377	0.023565	1.000000	0.000004	0.000010	0.000001	-0.969521	-0.072345	-0.120621	0.200613	5.464753	15.243106	-22.649507	0.890410	-0.371545	-0.262915	0.406450	0.909041	0.091883	0.204862	-0.188675	0.960434
36632	31484749	-2.574883	0.997724	9.419575	0.040948	0.087248	0.014213	0.006962	0.007570	0.000943				-0.006437	0.002494	0.023549	1.000000	0.000009	0.000009	0.000001	-0.969520	-0.072353	-0.120623	0.200617	5.465635	15.243566	-22.649801	0.890406	-0.371549	-0.262923	0.406458	0.909036	0.091898	0.204862	-0.188693	0.960430
36633	31484774	-2.602721	0.905319	9.471134	-0.010594	0.003761	0.062556	0.001685	0.009292	0.001717	-0.176354	0.248776	-1.465651	-0.006507	0.002263	0.023678	1.000000	0.000002	0.000012	0.000002	-0.969518	-0.072356	-0.120628	0.200618	5.465798	15.244261	-22.649956	0.890402	-0.371550	-0.262935	0.406462	0.909034	0.091900	0.204871	-0.188701	0.960427
36634	31484799	-2.561496	0.822702	9.480199	-0.005669	-0.088185	0.052831	-0.001940	0.005421	0.000501				-0.006404	0.002057	0.023701	1.000000	-0.000002	0.000007	0.000001	-0.969518	-0.072353	-0.120630	0.200621	5.465380	15.244421	-22.650345	0.890399	-0.371556	-0.262937	0.406467	0.909032	0.091893	0.204875	-0.188697	0.960427
36635	31484824	-2.575162	0.862771	9.445732	-0.008541	-0.040361	0.027002	0.002792	0.008707	0.004485				-0.006438	0.002157	0.023614	1.000000	0.000003	0.000011	0.000006	-0.969517	-0.072357	-0.120634	0.200620	5.465807	15.244994	-22.650099	0.890398	-0.371551	-0.262947	0.406466	0.909032	0.091900	0.204882	-0.188706	0.960424
36636	31484849	-2.627594	0.901096	9.500371	-0.028551	0.003757	0.096788	0.000156	0.002132	0.001018				-0.006569	0.002253	0.023751	1.000000	0.000000	0.000003	0.000001	-0.969517	-0.072356	-0.120632	0.200622	5.465697	15.244678	-22.650458	0.890397	-0.371557	-0.262942	0.406471	0.909030	0.091898	0.204877	-0.188704	0.960425
36637	31484874	-2.830755	0.860461	9.707621	-0.183588	0.002778	0.345542	0.010081	0.002868	0.004975	-0.176852	0.248299	-1.466638	-0.007077	0.002151	0.024269	1.000000	0.000013	0.000004	0.000006	-0.969517	-0.072368	-0.120627	0.200622	5.467165	15.244412	-22.650219	0.890400	-0.371554	-0.262937	0.406472	0.909027	0.091923	0.204863	-0.188725	0.960424
36638	31484899	-2.615275	0.918771	9.541673	-0.002327	0.007249	0.134865	0.001563	-0.002648	0.007303				-0.006538	0.002297	0.023854	1.000000	0.000002	-0.000003	0.000009	-0.969519	-0.072368	-0.120618	0.200618	5.467483	15.243329	-22.649717	0.890408	-0.371548	-0.262919	0.406463	0.909031	0.091929	0.204845	-0.188721	0.960428
36639	31484924	-2.337055	0.976940	9.083115	0.175177	0.043449	-0.373348	-0.005020	0.002320	0.007832				-0.005843	0.002442	0.022708	1.000000	-0.000006	0.000003	0.000010	-0.969521	-0.072362	-0.120616	0.200612	5.466897	15.242946	-22.649067	0.890414	-0.371538	-0.262912	0.406450	0.909037	0.091919	0.204846	-0.188707	0.960431
36640	31484949	-2.535996	0.922694	9.247754	0.009456	0.036848	-0.167906	0.006157	-0.001737	0.000948				-0.006340	0.002307	0.023119	1.000000	0.000008	-0.000002	0.000001	-0.969521	-0.072367	-0.120607	0.200616	5.467629	15.242079	-22.649491	0.890414	-0.371546	-0.262898	0.406458	0.909033	0.091932	0.204826	-0.188714	0.960434
36641	31484974	-2.684223	1.005242	9.615080	-0.013928	0.097674	0.231439	0.002100	-0.005540	0.004299	-0.177302	0.248311	-1.466138	-0.006711	0.002513	0.024038	1.000000	0.000003	-0.000007	0.000005	-0.969522	-0.072367	-0.120594	0.200616	5.467897	15.240624	-22.649474	0.890421	-0.371549	-0.262873	0.406457	0.909033	0.091937	0.204801	-0.188709	0.960440
36642	31484999	-2.536623	0.994488	9.551270	0.099966	0.045432	0.130365	-0.007004	-0.001279	0.008437				-0.006342	0.002486	0.023878	1.000000	-0.000009	-0.000002	0.000011	-0.969525	-0.072358	-0.120588	0.200609	5.467037	15.239720	-22.648785	0.890429	-0.371540	-0.262858	0.406442	0.909041	0.091923	0.204796	-0.188687	0.960446
36643	31485024	-2.367035	0.714491	9.338946	0.093704	-0.232023	-0.143872	-0.002334	0.002553	0.002575				-0.005918	0.001786	0.023347	1.000000	-0.000003	0.000003	0.000003	-0.969525	-0.072354	-0.120587	0.200609	5.466632	15.239442	-22.648908	0.890429	-0.371542	-0.262853	0.406442	0.909042	0.091916	0.204794	-0.188679	0.960448
36644	31485049	-2.450839	0.790386	9.289943	0.039809	-0.122973	-0.161937	0.009088	0.005117	0.002098				-0.006127	0.001976	0.023225	1.000000	0.000011	0.000006	0.000003	-0.969524	-0.072364	-0.120585	0.200612	5.467855	15.239536	-22.649066	0.890428	-0.371544	-0.262855	0.406449	0.909036	0.091937	0.204786	-0.188700	0.960445
36645	31485074	-2.683916	1.005739	9.484717	-0.040321	0.122605	0.106207	0.002420	0.001815	0.005554	-0.178196	0.247853	-1.465141	-0.006710	0.002514	0.023712	1.000000	0.000003	0.000002	0.000007	-0.969525	-0.072367	-0.120581	0.200610	5.468244	15.239113	-22.648758	0.890432	-0.371540	-0.262848	0.406445	0.909038	0.091943	0.204778	-0.188702	0.960446
36646	31485099	-2.717260	1.002556	9.601744	-0.047755	0.110160	0.227074	0.003472	-0.005460	0.001672				-0.006793	0.002506	0.024004	1.000000	0.000004	-0.000007	0.000002	-0.969526	-0.072368	-0.120568	0.200613	5.468606	15.237705	-22.649128	0.890435	-0.371549	-0.262824	0.406450	0.909035	0.091950	0.204752	-0.188700	0.960452
36647	31485124	-2.497998	0.884747	9.456481	0.069639	-0.050830	0.019100	-0.000763	-0.005834	0.004730				-0.006245	0.002212	0.023641	1.000000	-0.000001	-0.000007	0.000006	-0.969528	-0.072364	-0.120556	0.200612	5.468479	15.236202	-22.649051	0.890442	-0.371550	-0.262799	0.406446	0.909036	0.091948	0.204730	-0.188688	0.960459
36648	31485149	-2.471357	0.963659	9.321092	0.097788	0.036454	-0.110682	0.001590	0.003891	0.003859				-0.006178	0.002409	0.023303	1.000000	0.000002	0.000005	0.000005	-0.969528	-0.072366	-0.120555	0.200611	5.468691	15.236098	-22.648966	0.890443	-0.371549	-0.262797	0.406445	0.909036	0.091952	0.204727	-0.188691	0.960460
36649	31485174	-2.597036	0.956393	9.427399	0.004912	0.056591	0.023778	-0.004847	0.005373	0.001416	-0.177693	0.245923	-1.465164	-0.006492	0.002391	0.023569	1.000000	-0.000006	0.000007	0.000002	-0.969528	-0.072360	-0.120557	0.200613	5.467892	15.236238	-22.649220	0.890441	-0.371553	-0.262799	0.406446	0.909037	0.091939	0.204734	-0.188680	0.960460
36650	31485199	-2.626499	0.797677	9.557228	-0.059585	-0.101046	0.141625	-0.002576	-0.002347	0.005710				-0.006566	0.001994	0.023893	1.000000	-0.000003	-0.000003	0.000007	-0.969530	-0.072355	-0.120549	0.200610	5.467556	15.235219	-22.648950	0.890447	-0.371550	-0.262782	0.406439	0.909041	0.091933	0.204722	-0.188667	0.960465
36651	31485224	-2.471989	0.803428	9.486829	0.065635	-0.139878	0.033941	0.000325	-0.005496	0.006247				-0.006180	0.002009	0.023717	1.000000	0.000000	-0.000007	0.000008	-0.969532	-0.072353	-0.120537	0.200607	5.467645	15.233744	-22.648644	0.890455	-0.371548	-0.262757	0.406433	0.909044	0.091936	0.204700	-0.188658	0.960472
36652	31485249	-2.434195	0.955370	9.334380	0.129771	0.012957	-0.108444	0.001410	-0.000612	0.003235				-0.006086	0.002388	0.023336	1.000000	0.000002	-0.000001	0.000004	-0.969533	-0.072353	-0.120530	0.200608	5.467791	15.233006	-22.648715	0.890458	-0.371550	-0.262745	0.406433	0.909043	0.091938	0.204687	-0.188656	0.960475
36653	31485274	-2.566604	0.931807	9.375473	0.010823	0.032930	-0.036363	-0.001471	0.003631	0.007659	-0.177755	0.247359	-1.466140	-0.006416	0.002329	0.023439	1.000000	-0.000002	0.000005	0.000010	-0.969534	-0.072351	-0.120529	0.200602	5.467711	15.232812	-22.648072	0.890463	-0.371541	-0.262742	0.406422	0.909048	0.091937	0.204687	-0.188651	0.960476
36654	31485299	-2.597199	0.908049	9.472483	-0.006327	0.004549	0.062667	-0.002789	0.003052	0.007021				-0.006493	0.002270	0.023681	1.000000	-0.000003	0.000004	0.000009	-0.969536	-0.072348	-0.120528	0.200597	5.467416	15.232545	-22.647531	0.890468	-0.371533	-0.262737	0.406412	0.909053	0.091932	0.204686	-0.188642	0.960478
36655	31485324	-2.508855	0.939841	9.434056	0.077422	0.007898	0.005471	-0.002433	0.004777	0.007527				-0.006272	0.002350	0.023585	1.000000	-0.000003	0.000006	0.000009	-0.969537	-0.072345	-0.120528	0.200592	5.467198	15.232517	-22.646891	0.890472	-0.371523	-0.262737	0.406401	0.909058	0.091929	0.204689	-0.188636	0.960478
36656	31485349	-2.428806	0.927746	9.363549	0.129320	-0.019282	-0.084392	-0.006597	0.000928	0.003795				-0.006072	0.002320	0.023409	1.000000	-0.000008	0.000001	0.000005	-0.969538	-0.072336	-0.120525	0.200590	5.466224	15.231991	-22.646857	0.890474	-0.371523	-0.262728	0.406397	0.909062	0.091912	0.204688	-0.188617	0.960482
36657	31485374	-2.555919	0.837990	9.450977	-0.002083	-0.070387	0.024723	-0.000569	0.011849	0.002761	-0.177296	0.246867	-1.466645	-0.006389	0.002095	0.023628	1.000000	-0.000001	0.000015	0.000003	-0.969537	-0.072337	-0.120535	0.200590	5.466114	15.233037	-22.646821	0.890470	-0.371521	-0.262746	0.406397	0.909062	0.091910	0.204705	-0.188622	0.960478
36658	31485399	-2.572593	0.862478	9.518894	0.006851	-0.054841	0.096587	0.004174	0.008994	0.002864				-0.006431	0.002156	0.023797	1.000000	0.000005	0.000011	0.000004	-0.969536	-0.072343	-0.120539	0.200591	5.466677	15.233673	-22.646810	0.890467	-0.371520	-0.262756	0.406400	0.909060	0.091919	0.204711	-0.188635	0.960474
36659	31485424	-2.535026	0.897353	9.396649	0.029581	-0.013937	-0.027492	-0.001299	0.007862	-0.001255				-0.006337	0.002243	0.023492	1.000000	-0.000002	0.000010	-0.000002	-0.969535	-0.072341	-0.120544	0.200596	5.466291	15.234205	-22.647424	0.890461	-0.371528	-0.262765	0.406409	0.909056	0.091913	0.204720	-0.188635	0.960472
36660	31485449	-2.536290	0.940052	9.379503	0.042337	0.028385	-0.039702	0.004348	0.008731	0.001991				-0.006340	0.002350	0.023449	1.000000	0.000005	0.000011	0.000002	-0.969533	-0.072347	-0.120548	0.200597	5.466844	15.234816	-22.647547	0.890458	-0.371529	-0.262776	0.406414	0.909053	0.091922	0.204725	-0.188648	0.960468
36661	31485474	-2.577936	0.912137	9.483142	0.015449	-0.001216	0.068206	0.001065	0.012209	0.001901	-0.176792	0.245900	-1.466165	-0.006444	0.002280	0.023708	1.000000	0.000001	0.000015	0.000002	-0.969532	-0.072349	-0.120557	0.200598	5.466936	15.235925	-22.647633	0.890453	-0.371528	-0.262794	0.406417	0.909052	0.091923	0.204742	-0.188657	0.960463
36662	31485499	-2.601427	0.905195	9.508378	-0.003268	-0.003267	0.097980	-0.004846	0.003390	0.003926				-0.006503	0.002263	0.023771	1.000000	-0.000006	0.000004	0.000005	-0.969533	-0.072343	-0.120557	0.200597	5.466227	15.235748	-22.647545	0.890454	-0.371527	-0.262791	0.406413	0.909055	0.091911	0.204744	-0.188644	0.960465
36663	31485524	-2.514304	0.915233	9.394066	0.055233	-0.005011	-0.033787	-0.002527	0.011030	0.003003				-0.006285	0.002288	0.023485	1.000000	-0.000003	0.000014	0.000004	-0.969532	-0.072341	-0.120565	0.200596	5.465843	15.236673	-22.647485	0.890450	-0.371525	-0.262807	0.406412	0.909056	0.091904	0.204761	-0.188644	0.960461
36664	31485549	-2.521301	0.867032	9.401878	0.031167	-0.047741	-0.028874	0.000592	0.010344	-0.004373				-0.006303	0.002168	0.023505	1.000000	0.000001	0.000013	-0.000005	-0.969529	-0.072342	-0.120573	0.200605	5.465617	15.237601	-22.648525	0.890440	-0.371539	-0.262822	0.406429	0.909049	0.091900	0.204774	-0.188650	0.960458
36665	31485574	-2.600024	0.880480	9.489681	-0.015477	-0.023023	0.077380	0.005142	0.005113	-0.002210	-0.177198	0.245436	-1.464680	-0.006500	0.002201	0.023724	1.000000	0.000006	0.000006	-0.000003	-0.969527	-0.072347	-0.120573	0.200612	5.466107	15.237754	-22.649319	0.890434	-0.371551	-0.262825	0.406444	0.909041	0.091908	0.204770	-0.188662	0.960456
36666	31485599	-2.573857	0.909300	9.507073	0.022998	-0.009570	0.089856	-0.002019	0.002100	-0.001507				-0.006435	0.002273	0.023768	1.000000	-0.000003	0.000003	-0.000002	-0.969527	-0.072343	-0.120571	0.200618	5.465587	15.237467	-22.650052	0.890430	-0.371563	-0.262820	0.406453	0.909038	0.091899	0.204767	-0.188654	0.960458
36667	31485624	-2.510228	0.883559	9.401944	0.047842	-0.036755	-0.030205	-0.002868	0.007832	0.000617				-0.006275	0.002209	0.023505	1.000000	-0.000004	0.000010	0.000001	-0.969526	-0.072340	-0.120576	0.200620	5.465049	15.237969	-22.650390	0.890426	-0.371568	-0.262829	0.406457	0.909037	0.091890	0.204778	-0.188650	0.960457
36668	31485649	-2.550210	0.884983	9.395265	0.011523	-0.019392	-0.025981	-0.000079	0.007837	0.001200				-0.006375	0.002212	0.023488	1.000000	-0.000000	0.000010	0.000001	-0.969525	-0.072340	-0.120580	0.200622	5.464934	15.238464	-22.650642	0.890422	-0.371571	-0.262837	0.406462	0.909035	0.091888	0.204785	-0.188652	0.960455
36669	31485674	-2.602872	0.887220	9.528276	-0.007206	-0.023004	0.115819	0.003406	0.003603	-0.001718	-0.175870	0.246843	-1.466169	-0.006507	0.002218	0.023821	1.000000	0.000004	0.000005	-0.000002	-0.969523	-0.072342	-0.120579	0.200629	5.465189	15.238394	-22.651384	0.890418	-0.371582	-0.262836	0.406474	0.909029	0.091892	0.204780	-0.188659	0.960455
36670	31485699	-2.589000	0.894241	9.485742	-0.000833	-0.013536	0.071967	-0.002733	0.001994	0.004075				-0.006472	0.002236	0.023714	1.000000	-0.000003	0.000002	0.000005	-0.969524	-0.072338	-0.120576	0.200627	5.464783	15.238016	-22.651293	0.890420	-0.371582	-0.262829	0.406471	0.909032	0.091886	0.204777	-0.188649	0.960457
36671	31485724	-2.525307	0.920764	9.387425	0.046573	0.005530	-0.036766	-0.003102	0.003943	0.003065				-0.006313	0.002302	0.023469	1.000000	-0.000004	0.000005	0.000004	-0.969525	-0.072334	-0.120576	0.200627	5.464293	15.237930	-22.651324	0.890420	-0.371582	-0.262828	0.406469	0.909033	0.091878	0.204779	-0.188641	0.960458
36672	31485749	-2.573675	0.910998	9.429930	0.008194	0.006547	0.015873	0.000724	0.004031	0.004911				-0.006434	0.002277	0.023575	1.000000	0.000001	0.000005	0.000006	-0.969525	-0.072335	-0.120576	0.200625	5.464422	15.237831	-22.651081	0.890422	-0.371579	-0.262826	0.406466	0.909034	0.091880	0.204778	-0.188642	0.960458
36673	31485774	-2.612443	0.910696	9.504391	-0.011077	0.006652	0.097550	-0.001587	0.003710	0.001001	-0.176327	0.248298	-1.465160	-0.006531	0.002277	0.023761	1.000000	-0.000002	0.000005	0.000001	-0.969525	-0.072332	-0.120575	0.200628	5.464068	15.237740	-22.651421	0.890420	-0.371584	-0.262825	0.406470	0.909033	0.091874	0.204778	-0.188637	0.960459
36674	31485799	-2.529503	0.937189	9.412741	0.054593	0.017363	-0.009841	-0.002272	0.001127	0.005020				-0.006324	0.002343	0.023532	1.000000	-0.000003	0.000001	0.000006	-0.969526	-0.072328	-0.120571	0.200625	5.463762	15.237226	-22.651203	0.890424	-0.371582	-0.262816	0.406465	0.909036	0.091869	0.204773	-0.188628	0.960462
36675	31485824	-2.510042	0.945605	9.364911	0.065553	0.027090	-0.060122	-0.006746	0.000021	-0.000909				-0.006275	0.002364	0.023412	1.000000	-0.000008	0.000000	-0.000001	-0.969526	-0.072318	-0.120568	0.200630	5.462581	15.236635	-22.651877	0.890422	-0.371593	-0.262806	0.406470	0.909036	0.091849	0.204770	-0.188608	0.960467
36676	31485849	-2.532199	0.891931	9.366042	0.024301	-0.013480	-0.058142	-0.006673	0.002015	-0.003175				-0.006330	0.002230	0.023415	1.000000	-0.000008	0.000003	-0.000004	-0.969526	-0.072308	-0.120567	0.200637	5.461329	15.236359	-22.652857	0.890417	-0.371609	-0.262802	0.406481	0.909033	0.091829	0.204771	-0.188589	0.960470
36677	31485874	-2.529556	0.884891	9.416572	0.034071	-0.030050	-0.010959	-0.009033	-0.005554	-0.005695	-0.177247	0.248319	-1.464654	-0.006324	0.002213	0.023541	1.000000	-0.000011	-0.000007	-0.000007	-0.969526	-0.072293	-0.120558	0.200647	5.459614	15.235038	-22.654318	0.890413	-0.371634	-0.262779	0.406496	0.909029	0.091800	0.204758	-0.188559	0.960479
36678	31485899	-2.598474	0.963168	9.459353	0.013254	0.058789	0.055425	-0.004798	0.001666	-0.001219				-0.006496	0.002408	0.023648	1.000000	-0.000006	0.000002	-0.000002	-0.969526	-0.072285	-0.120556	0.200652	5.458706	15.234686	-22.655014	0.890410	-0.371645	-0.262773	0.406503	0.909027	0.091785	0.204757	-0.188545	0.960482
36679	31485924	-2.645542	0.994408	9.573824	0.007328	0.083288	0.180607	-0.002591	-0.002898	-0.005212				-0.006614	0.002486	0.023935	1.000000	-0.000003	-0.000004	-0.000007	-0.969525	-0.072279	-0.120549	0.200662	5.457942	15.233737	-22.656365	0.890405	-0.371668	-0.262757	0.406521	0.909021	0.091773	0.204743	-0.188531	0.960488
36680	31485949	-2.570827	1.009983	9.448872	0.054568	0.093620	0.042386	-0.009854	-0.003007	-0.000939				-0.006427	0.002525	0.023622	1.000000	-0.000012	-0.000004	-0.000001	-0.969526	-0.072264	-0.120543	0.200667	5.456303	15.232714	-22.657086	0.890405	-0.371681	-0.262740	0.406525	0.909022	0.091746	0.204736	-0.188501	0.960495
36681	31485974	-2.482267	0.943247	9.263819	0.068554	0.035123	-0.164750	-0.011726	0.000626	0.004506	-0.176772	0.246866	-1.465168	-0.006206	0.002358	0.023160	1.000000	-0.000015	0.000001	0.000006	-0.969528	-0.072249	-0.120541	0.200664	5.454621	15.232135	-22.656951	0.890408	-0.371680	-0.262730	0.406516	0.909029	0.091718	0.204740	-0.188470	0.960500
36682	31485999	-2.521207	0.781997	9.323123	-0.019795	-0.107752	-0.112342	-0.010242	-0.005235	0.002703				-0.006303	0.001955	0.023308	1.000000	-0.000013	-0.000007	0.000003	-0.969530	-0.072233	-0.120531	0.200663	5.453060	15.230745	-22.657165	0.890413	-0.371686	-0.262707	0.406511	0.909033	0.091692	0.204729	-0.188437	0.960509
36683	31485678																																			
36684	31485678																																			
36685	31486024	-2.609994	0.711125	9.511718	-0.089232	-0.174331	0.085638	-0.010335	-0.007290	0.000943				-0.006525	0.001778	0.023779	1.000000	-0.000013	-0.000009	0.000001	-0.969532	-0.072217	-0.120520	0.200666	5.451409	15.229087	-22.657668	0.890416	-0.371697	-0.262679	0.406511	0.909036	0.091665	0.204713	-0.188402	0.960519
36686	31486049	-2.593397	0.877381	9.582772	0.007288	-0.042487	0.164767	-0.005670	-0.011754	0.002742				-0.006484	0.002194	0.023957	1.000000	-0.000007	-0.000015	0.000003	-0.969535	-0.072206	-0.120502	0.200667	5.450480	15.226767	-22.657968	0.890424	-0.371705	-0.262640	0.406509	0.909038	0.091651	0.204683	-0.188374	0.960531
36687	31486074	-2.568407	0.947687	9.547107	0.050611	0.019412	0.130492	-0.007354	-0.006124	0.002348	-0.177292	0.248794	-1.465639	-0.006421	0.002369	0.023868	1.000000	-0.000009	-0.000008	0.000003	-0.969566	-0.072170	-0.120495	0.200534	5.448632	15.224473	-22.642574	0.890534	-0.371470	-0.262601	0.406255	0.909155	0.091621	0.204711	-0.188275	0.960545
36688	31486099	-2.596993	0.972968	9.422136	0.009725	0.076686	0.020273	-0.002973	-0.000986	-0.000259				-0.006493	0.002433	0.023555	1.000000	-0.000004	-0.000001	-0.000000	-0.969566	-0.072164	-0.120490	0.200538	5.448013	15.223729	-22.643166	0.890533	-0.371481	-0.262589	0.406261	0.909153	0.091611	0.204702	-0.188262	0.960549
36689	31486124	-2.614851	0.952410	9.395464	-0.020245	0.069798	-0.002544	-0.001255	-0.005403	0.000636				-0.006537	0.002381	0.023489	1.000000	-0.000002	-0.000007	0.000001	-0.969567	-0.072160	-0.120478	0.200542	5.447658	15.222343	-22.643688	0.890536	-0.371491	-0.262565	0.406266	0.909152	0.091605	0.204681	-0.188249	0.960556
36690	31486149	-2.608108	0.901380	9.424561	-0.029400	0.015619	0.018960	-0.001268	-0.010356	0.003655				-0.006521	0.002253	0.023561	1.000000	-0.000002	-0.000013	0.000005	-0.969570	-0.072154	-0.120460	0.200543	5.447400	15.220210	-22.643833	0.890544	-0.371497	-0.262530	0.406264	0.909153	0.091602	0.204650	-0.188232	0.960566
36691	31486174	-2.560104	0.829643	9.469573	-0.006758	-0.075759	0.043023	-0.002368	-0.009821	0.001384	-0.176325	0.249262	-1.464657	-0.006401	0.002074	0.023674	1.000000	-0.000003	-0.000012	0.000002	-0.969572	-0.072147	-0.120444	0.200546	5.446899	15.218184	-22.644307	0.890549	-0.371508	-0.262495	0.406267	0.909152	0.091595	0.204620	-0.188213	0.960576
36692	31486199	-2.511927	0.793825	9.470818	0.021403	-0.126260	0.028296	-0.000241	-0.010532	0.004296				-0.006280	0.001985	0.023677	1.000000	-0.000000	-0.000013	0.000005	-0.969574	-0.072143	-0.120426	0.200546	5.446813	15.216017	-22.644360	0.890558	-0.371513	-0.262459	0.406264	0.909153	0.091594	0.204587	-0.188197	0.960586
36693	31486224	-2.504952	0.802203	9.445572	0.025610	-0.116379	0.002983	0.000395	-0.007766	0.002919				-0.006263	0.002005	0.023614	1.000000	0.000000	-0.000010	0.000004	-0.969576	-0.072140	-0.120411	0.200547	5.446774	15.214263	-22.644577	0.890564	-0.371519	-0.262429	0.406265	0.909153	0.091594	0.204560	-0.188186	0.960594
36694	31486249	-2.524075	0.862887	9.405859	0.024718	-0.046615	-0.024588	0.003244	-0.009222	0.007455				-0.006310	0.002157	0.023515	1.000000	0.000004	-0.000012	0.000009	-0.969579	-0.072141	-0.120393	0.200544	5.447314	15.212240	-22.644145	0.890575	-0.371516	-0.262395	0.406257	0.909156	0.091604	0.204526	-0.188180	0.960603
36695	31486274	-2.526653	0.918113	9.367458	0.036838	0.011880	-0.055731	-0.000462	-0.008616	0.005235	-0.176337	0.247815	-1.465659	-0.006317	0.002295	0.023419	1.000000	-0.000001	-0.000011	0.000007	-0.969582	-0.072137	-0.120377	0.200543	5.447240	15.210334	-22.644032	0.890584	-0.371518	-0.262363	0.406252	0.909158	0.091604	0.204497	-0.188166	0.960611
36696	31486299	-2.518390	0.962025	9.395551	0.067414	0.043406	-0.026888	0.004283	-0.005187	0.010476				-0.006296	0.002405	0.023489	1.000000	0.000005	-0.000006	0.000013	-0.969584	-0.072140	-0.120363	0.200535	5.448061	15.208845	-22.643096	0.890597	-0.371506	-0.262338	0.406238	0.909163	0.091618	0.204471	-0.188166	0.960617
36697	31486324	-2.536360	0.944098	9.407452	0.046379	0.031779	-0.012384	-0.001042	-0.006226	0.000708				-0.006341	0.002360	0.023519	1.000000	-0.000001	-0.000008	0.000001	-0.969586	-0.072136	-0.120351	0.200539	5.447736	15.207341	-22.643619	0.890599	-0.371517	-0.262313	0.406243	0.909161	0.091613	0.204449	-0.188153	0.960624
36698	31486349	-2.523966	0.926178	9.406074	0.049580	0.011305	-0.018599	-0.001256	-0.007716	0.002520				-0.006310	0.002315	0.023515	1.000000	-0.000002	-0.000010	0.000003	-0.969587	-0.072131	-0.120336	0.200541	5.447446	15.205599	-22.643895	0.890605	-0.371524	-0.262283	0.406244	0.909161	0.091609	0.204423	-0.188139	0.960633
36699	31486374	-2.515774	0.854690	9.391198	0.024678	-0.053681	-0.041588	-0.006625	-0.008374	0.004178	-0.178683	0.247860	-1.465630	-0.006290	0.002137	0.023478	1.000000	-0.000008	-0.000010	0.000005	-0.969590	-0.072119	-0.120322	0.200540	5.446449	15.203742	-22.643935	0.890613	-0.371528	-0.262252	0.406238	0.909165	0.091593	0.204401	-0.188111	0.960643
36700	31486399	-2.488178	0.856091	9.380584	0.047365	-0.060374	-0.058890	-0.004767	-0.007536	0.001119				-0.006221	0.002140	0.023451	1.000000	-0.000006	-0.000009	0.000001	-0.969592	-0.072110	-0.120309	0.200543	5.445602	15.202045	-22.644415	0.890617	-0.371538	-0.262224	0.406240	0.909166	0.091580	0.204379	-0.188088	0.960652
36701	31486424	-2.513080	0.853239	9.411161	0.029950	-0.059442	-0.023246	0.001478	-0.007887	0.003551				-0.006283	0.002133	0.023528	1.000000	0.000002	-0.000010	0.000004	-0.969594	-0.072108	-0.120294	0.200544	5.445743	15.200266	-22.644541	0.890623	-0.371543	-0.262194	0.406240	0.909165	0.091583	0.204350	-0.188079	0.960660
36702	31486449	-2.517138	0.900037	9.413960	0.045696	-0.015797	-0.015206	-0.000679	-0.006126	0.006609				-0.006293	0.002250	0.023535	1.000000	-0.000001	-0.000008	0.000008	-0.969596	-0.072105	-0.120281	0.200540	5.445699	15.198695	-22.644190	0.890632	-0.371541	-0.262167	0.406232	0.909169	0.091583	0.204328	-0.188067	0.960667
36703	31486474	-2.501920	0.928963	9.398105	0.067689	0.007947	-0.031790	-0.002627	-0.005560	0.002575	-0.178691	0.248340	-1.465625	-0.006255	0.002322	0.023495	1.000000	-0.000003	-0.000007	0.000003	-0.969598	-0.072099	-0.120269	0.200542	5.445223	15.197261	-22.644429	0.890637	-0.371547	-0.262143	0.406232	0.909170	0.091576	0.204308	-0.188051	0.960674
36704	31486499	-2.511623	0.901420	9.408644	0.049736	-0.015219	-0.021643	-0.002578	-0.005846	0.000381				-0.006279	0.002254	0.023522	1.000000	-0.000003	-0.000007	0.000000	-0.969599	-0.072092	-0.120258	0.200546	5.444668	15.195816	-22.644994	0.890639	-0.371558	-0.262119	0.406237	0.909168	0.091567	0.204288	-0.188035	0.960682
36705	31486524	-2.564076	0.875146	9.436470	-0.002022	-0.024771	0.016432	-0.002006	-0.001082	0.001946				-0.006410	0.002188	0.023591	1.000000	-0.000003	-0.000001	0.000002	-0.969600	-0.072088	-0.120251	0.200547	5.444272	15.195028	-22.645261	0.890641	-0.371564	-0.262105	0.406238	0.909168	0.091561	0.204277	-0.188025	0.960686
36706	31486549	-2.568329	0.872284	9.479021	0.001488	-0.033639	0.058163	-0.002734	-0.004360	0.006275				-0.006421	0.002181	0.023698	1.000000	-0.000003	-0.000005	0.000008	-0.969602	-0.072082	-0.120241	0.200544	5.443928	15.193714	-22.644935	0.890649	-0.371561	-0.262083	0.406230	0.909173	0.091555	0.204261	-0.188010	0.960692
36707	31486574	-2.572451	0.848916	9.461651	-0.015268	-0.050094	0.040414	-0.001253	-0.002670	0.005405	-0.178718	0.248818	-1.466115	-0.006431	0.002122	0.023654	1.000000	-0.000002	-0.000003	0.000007	-0.969604	-0.072079	-0.120232	0.200542	5.443769	15.192653	-22.644714	0.890654	-0.371559	-0.262065	0.406224	0.909175	0.091553	0.204246	-0.188000	0.960698
36708	31486599	-2.539319	0.866897	9.437781	0.016531	-0.041369	0.010446	-0.003201	-0.000587	0.004634				-0.006348	0.002167	0.023594	1.000000	-0.000004	-0.000001	0.000006	-0.969605	-0.072074	-0.120227	0.200540	5.443308	15.191900	-22.644577	0.890658	-0.371559	-0.262053	0.406219	0.909178	0.091546	0.204238	-0.187987	0.960702
36709	31486624	-2.537892	0.884823	9.432523	0.023827	-0.024796	0.006662	0.005414	0.000364	0.005521				-0.006345	0.002212	0.023581	1.000000	0.000007	0.000000	0.000007	-0.969606	-0.072079	-0.120220	0.200538	5.444120	15.191270	-22.644295	0.890663	-0.371555	-0.262042	0.406217	0.909178	0.091560	0.204223	-0.187995	0.960703
36710	31486649	-2.546150	0.877886	9.440491	0.015012	-0.029387	0.015846	0.001810	-0.005320	0.002228				-0.006366	0.002195	0.023601	1.000000	0.000002	-0.000007	0.000003	-0.969607	-0.072079	-0.120208	0.200541	5.444266	15.189874	-22.644580	0.890667	-0.371562	-0.262019	0.406220	0.909176	0.091563	0.204200	-0.187989	0.960709
36711	31486674	-2.564105	0.884782	9.444482	0.002594	-0.017440	0.024991	0.005804	-0.000261	0.006030	-0.178212	0.248814	-1.465132	-0.006410	0.002212	0.023611	1.000000	0.000007	-0.000000	0.000008	-0.969608	-0.072085	-0.120201	0.200538	5.445151	15.189149	-22.644235	0.890672	-0.371558	-0.262006	0.406217	0.909176	0.091578	0.204184	-0.187997	0.960711
36712	31486699	-2.553084	0.891630	9.457813	0.017747	-0.017577	0.035540	-0.001846	-0.000688	0.006156				-0.006383	0.002229	0.023645	1.000000	-0.000002	-0.000001	0.000008	-0.969610	-0.072081	-0.120195	0.200535	5.444943	15.188360	-22.643874	0.890678	-0.371554	-0.261993	0.406209	0.909180	0.091575	0.204174	-0.187988	0.960715
36713	31486724	-2.543445	0.876532	9.451118	0.018545	-0.033759	0.025200	0.005667	-0.002851	0.006342				-0.006359	0.002191	0.023628	1.000000	0.000007	-0.000004	0.000008	-0.969611	-0.072086	-0.120184	0.200533	5.445810	15.187261	-22.643517	0.890685	-0.371550	-0.261975	0.406205	0.909180	0.091590	0.204152	-0.187993	0.960719
36714	31486749	-2.554562	0.844788	9.460315	-0.002492	-0.060256	0.034040	0.004648	-0.000557	0.003257				-0.006386	0.002112	0.023651	1.000000	0.000006	-0.000001	0.000004	-0.969612	-0.072090	-0.120177	0.200534	5.446421	15.186530	-22.643583	0.890688	-0.371553	-0.261962	0.406207	0.909178	0.091600	0.204136	-0.187998	0.960721
36715	31486774	-2.550404	0.853048	9.464342	0.005292	-0.055148	0.037573	0.004607	-0.001828	0.003004	-0.178232	0.247848	-1.466130	-0.006376	0.002132	0.023661	1.000000	0.000006	-0.000002	0.000004	-0.969612	-0.072094	-0.120168	0.200535	5.447011	15.185622	-22.643704	0.890691	-0.371556	-0.261947	0.406210	0.909176	0.091611	0.204118	-0.188002	0.960724
36716	31486799	-2.582096	0.866799	9.464357	-0.017730	-0.030921	0.047148	0.007199	-0.003551	0.006287				-0.006455	0.002167	0.023661	1.000000	0.000009	-0.000004	0.000008	-0.969614	-0.072101	-0.120156	0.200533	5.448093	15.184423	-22.643365	0.890698	-0.371553	-0.261927	0.406206	0.909176	0.091629	0.204092	-0.188010	0.960728
36717	31486824	-2.565434	0.921923	9.451257	0.016726	0.015483	0.035250	0.003152	-0.000843	0.005063				-0.006414	0.002305	0.023628	1.000000	0.000004	-0.000001	0.000006	-0.969615	-0.072103	-0.120148	0.200532	5.448558	15.183627	-22.643168	0.890703	-0.371551	-0.261913	0.406204	0.909176	0.091637	0.204077	-0.188012	0.960731
36718	31486849	-2.570998	0.903976	9.461835	0.006217	-0.000714	0.045226	0.005350	-0.008352	0.002638				-0.006428	0.002260	0.023655	1.000000	0.000007	-0.000010	0.000003	-0.969616	-0.072106	-0.120132	0.200535	5.449217	15.181794	-22.643436	0.890709	-0.371559	-0.261883	0.406208	0.909173	0.091649	0.204044	-0.188011	0.960738
36719	31486874	-2.594546	0.884584	9.496338	-0.015755	-0.016380	0.082765	0.010355	-0.003850	0.003678	-0.179234	0.248338	-1.467597	-0.006486	0.002211	0.023741	1.000000	0.000013	-0.000005	0.000005	-0.969616	-0.072116	-0.120119	0.200536	5.450649	15.180588	-22.643486	0.890713	-0.371562	-0.261862	0.406212	0.909169	0.091674	0.204015	-0.188027	0.960741
36720	31486899	-2.562818	0.894209	9.492403	0.015224	-0.018698	0.071559	0.008677	-0.004698	0.005737				-0.006407	0.002235	0.023731	1.000000	0.000011	-0.000006	0.000007	-0.969618	-0.072124	-0.120105	0.200535	5.451917	15.179233	-22.643244	0.890721	-0.371560	-0.261839	0.406210	0.909167	0.091696	0.203985	-0.188037	0.960746
36721	31486924	-2.569572	0.897158	9.444526	0.000432	-0.004546	0.027600	0.005798	-0.003102	0.006716				-0.006424	0.002243	0.023611	1.000000	0.000007	-0.000004	0.000008	-0.969619	-0.072130	-0.120094	0.200533	5.452817	15.178093	-22.642835	0.890728	-0.371556	-0.261820	0.406205	0.909168	0.091711	0.203963	-0.188042	0.960749
36722	31486949	-2.548980	0.846265	9.440380	-0.003173	-0.057737	0.013558	0.008151	-0.008193	0.004858				-0.006373	0.002115	0.023601	1.000000	0.000010	-0.000010	0.000006	-0.969621	-0.072136	-0.120077	0.200533	5.453963	15.176252	-22.642772	0.890736	-0.371558	-0.261789	0.406206	0.909166	0.091731	0.203926	-0.188049	0.960756
36723	31486974	-2.568284	0.899842	9.468463	0.006889	-0.007176	0.050504	0.005986	-0.008476	0.002833	-0.180089	0.248850	-1.465109	-0.006421	0.002249	0.023671	1.000000	0.000007	-0.000011	0.000004	-0.969622	-0.072140	-0.120059	0.200535	5.454719	15.174398	-22.643013	0.890742	-0.371565	-0.261758	0.406209	0.909163	0.091745	0.203891	-0.188049	0.960763
36724	31486999	-2.561279	0.946639	9.464638	0.030914	0.033386	0.049291	0.009233	-0.006561	0.008127				-0.006403	0.002366	0.023662	1.000000	0.000012	-0.000008	0.000010	-0.969624	-0.072149	-0.120043	0.200532	5.456152	15.172745	-22.642444	0.890753	-0.371559	-0.261730	0.406203	0.909163	0.091769	0.203858	-0.188059	0.960768
36725	31487024	-2.598525	0.942475	9.468596	-0.003469	0.042722	0.062460	0.005810	-0.007346	0.006342				-0.006497	0.002356	0.023671	1.000000	0.000007	-0.000009	0.000008	-0.969626	-0.072153	-0.120027	0.200530	5.457024	15.171005	-22.642150	0.890762	-0.371558	-0.261701	0.406199	0.909163	0.091785	0.203825	-0.188061	0.960775
36726	31487049	-2.566961	0.870877	9.481681	-0.002224	-0.036602	0.060199	0.006895	-0.009885	0.009744				-0.006418	0.002177	0.023704	1.000000	0.000009	-0.000012	0.000012	-0.969629	-0.072158	-0.120007	0.200524	5.458172	15.168856	-22.641390	0.890776	-0.371550	-0.261665	0.406188	0.909166	0.091805	0.203786	-0.188063	0.960783
36727	31487074	-2.547576	0.858635	9.439086	0.001050	-0.046987	0.013081	0.006641	-0.011320	0.007296	-0.179593	0.248363	-1.464624	-0.006369	0.002146	0.023598	1.000000	0.000008	-0.000014	0.000009	-0.969632	-0.072163	-0.119986	0.200522	5.459185	15.166535	-22.641011	0.890789	-0.371548	-0.261625	0.406182	0.909167	0.091823	0.203745	-0.188062	0.960792
36728	31487099	-2.546112	0.906831	9.437915	0.021245	-0.003476	0.016000	0.008222	-0.009423	0.003228				-0.006366	0.002267	0.023595	1.000000	0.000010	-0.000012	0.000004	-0.969634	-0.072169	-0.119967	0.200524	5.460273	15.164541	-22.641207	0.890796	-0.371554	-0.261592	0.406186	0.909163	0.091842	0.203705	-0.188068	0.960799
36729	31487124	-2.539214	0.898634	9.420599	0.020004	-0.010358	-0.003194	0.011700	-0.011994	0.004889				-0.006348	0.002246	0.023551	1.000000	0.000015	-0.000015	0.000006	-0.969636	-0.072179	-0.119944	0.200525	5.461915	15.162157	-22.641193	0.890806	-0.371558	-0.261552	0.406188	0.909160	0.091871	0.203657	-0.188078	0.960807
36730	31487149	-2.524048	0.912319	9.435287	0.041552	-0.006413	0.008211	0.011909	-0.012611	0.005959				-0.006311	0.002280	0.023588	1.000000	0.000015	-0.000016	0.000007	-0.969638	-0.072189	-0.119920	0.200525	5.463625	15.159671	-22.641031	0.890817	-0.371560	-0.261510	0.406188	0.909157	0.091900	0.203607	-0.188089	0.960816
36731	31487174	-2.550228	0.950833	9.450031	0.036685	0.035394	0.032762	0.009842	-0.007583	0.003490	-0.178204	0.248334	-1.465137	-0.006376	0.002377	0.023625	1.000000	0.000012	-0.000009	0.000004	-0.969639	-0.072198	-0.119903	0.200528	5.464963	15.157936	-22.641162	0.890824	-0.371565	-0.261481	0.406192	0.909152	0.091924	0.203570	-0.188099	0.960821
36732	31487199	-2.548846	0.932914	9.440660	0.028016	0.020398	0.021752	0.010122	-0.014737	0.007327				-0.006373	0.002332	0.023602	1.000000	0.000013	-0.000018	0.000009	-0.969642	-0.072205	-0.119877	0.200526	5.466462	15.155128	-22.640828	0.890838	-0.371565	-0.261433	0.406188	0.909152	0.091950	0.203517	-0.188104	0.960832
36733	31487224	-2.550297	0.904025	9.447208	0.015872	-0.006452	0.025767	0.006218	-0.014412	0.003657				-0.006376	0.002260	0.023618	1.000000	0.000008	-0.000018	0.000005	-0.969644	-0.072208	-0.119852	0.200528	5.467262	15.152417	-22.641031	0.890848	-0.371573	-0.261388	0.406190	0.909149	0.091965	0.203469	-0.188100	0.960843
36734	31487249	-2.572413	0.888827	9.464445	-0.006791	-0.015244	0.046711	0.004609	-0.009747	0.002383				-0.006431	0.002222	0.023661	1.000000	0.000006	-0.000012	0.000003	-0.969646	-0.072210	-0.119834	0.200531	5.467799	15.150388	-22.641356	0.890854	-0.371582	-0.261353	0.406194	0.909146	0.091974	0.203433	-0.188096	0.960851
36735	31487274	-2.544829	0.869647	9.445772	0.005956	-0.039595	0.019806	0.006951	-0.007206	0.007169	-0.179159	0.249312	-1.465116	-0.006362	0.002174	0.023614	1.000000	0.000009	-0.000009	0.000009	-0.969648	-0.072215	-0.119818	0.200528	5.468866	15.148656	-22.640937	0.890864	-0.371578	-0.261324	0.406189	0.909147	0.091993	0.203400	-0.188100	0.960857
36736	31487299	-2.510192	0.893229	9.387351	0.033844	-0.019919	-0.043207	0.006454	-0.014122	0.009936				-0.006276	0.002233	0.023468	1.000000	0.000008	-0.000018	0.000012	-0.969652	-0.072219	-0.119793	0.200523	5.469943	15.145900	-22.640209	0.890881	-0.371572	-0.261278	0.406177	0.909150	0.092012	0.203352	-0.188097	0.960868
36737	31487324	-2.508818	0.904182	9.407338	0.043146	-0.014414	-0.023352	0.011444	-0.010493	0.007650				-0.006272	0.002260	0.023518	1.000000	0.000014	-0.000013	0.000010	-0.969654	-0.072230	-0.119771	0.200520	5.471659	15.143693	-22.639767	0.890893	-0.371569	-0.261241	0.406173	0.909149	0.092042	0.203307	-0.188108	0.960875
36738	31487349	-2.537813	0.941204	9.440696	0.038600	0.023895	0.019686	0.005752	-0.015320	0.006352				-0.006345	0.002353	0.023602	1.000000	0.000007	-0.000019	0.000008	-0.969657	-0.072232	-0.119746	0.200519	5.472493	15.140815	-22.639585	0.890906	-0.371571	-0.261192	0.406169	0.909149	0.092057	0.203257	-0.188103	0.960887
36739	31487374	-2.555953	0.866736	9.482995	0.000346	-0.045128	0.058209	0.009400	-0.015506	0.002679	-0.180543	0.246934	-1.465615	-0.006390	0.002167	0.023707	1.000000	0.000012	-0.000019	0.000003	-0.969660	-0.072238	-0.119719	0.200523	5.473707	15.137961	-22.639948	0.890916	-0.371581	-0.261144	0.406174	0.909145	0.092079	0.203203	-0.188105	0.960898
36740	31487399	-2.525523	0.858653	9.436432	0.014054	-0.054995	0.004777	0.009881	-0.015825	0.006700				-0.006314	0.002146	0.023591	1.000000	0.000012	-0.000020	0.000008	-0.969663	-0.072245	-0.119692	0.200522	5.475143	15.135006	-22.639723	0.890930	-0.371583	-0.261094	0.406171	0.909143	0.092104	0.203148	-0.188108	0.960909
36741	31487424	-2.497675	0.924982	9.360854	0.049990	0.009184	-0.069005	0.008252	-0.014001	0.005808				-0.006245	0.002312	0.023402	1.000000	0.000010	-0.000018	0.000007	-0.969665	-0.072250	-0.119667	0.200522	5.476318	15.132324	-22.639603	0.890942	-0.371586	-0.261049	0.406170	0.909142	0.092125	0.203098	-0.188108	0.960920
36742	31487449	-2.501784	0.920945	9.342208	0.040470	0.010680	-0.086220	0.004436	-0.014018	0.004396				-0.006255	0.002302	0.023355	1.000000	0.000006	-0.000018	0.000005	-0.969668	-0.072251	-0.119643	0.200523	5.476893	15.129659	-22.639691	0.890952	-0.371592	-0.261004	0.406169	0.909141	0.092136	0.203053	-0.188101	0.960931
36743	31487474	-2.482639	0.876750	9.380646	0.047047	-0.043730	-0.058355	0.000852	-0.014292	0.006817	-0.179588	0.245956	-1.465635	-0.006207	0.002192	0.023452	1.000000	0.000001	-0.000018	0.000009	-0.969672	-0.072247	-0.119620	0.200520	5.477046	15.126921	-22.639427	0.890966	-0.371593	-0.260958	0.406162	0.909144	0.092140	0.203010	-0.188084	0.960943
36744	31487499	-2.488086	0.944136	9.394170	0.071707	0.017145	-0.037725	0.004722	-0.015466	0.004588				-0.006221	0.002360	0.023485	1.000000	0.000006	-0.000019	0.000006	-0.969675	-0.072248	-0.119594	0.200521	5.477663	15.124047	-22.639508	0.890977	-0.371599	-0.260910	0.406161	0.909143	0.092151	0.202961	-0.188076	0.960955
36745	31487524	-2.484029	0.933064	9.416756	0.074988	0.001239	-0.018096	0.007845	-0.011507	0.007181				-0.006210	0.002332	0.023542	1.000000	0.000010	-0.000014	0.000009	-0.969677	-0.072254	-0.119573	0.200519	5.478843	15.121702	-22.639150	0.890989	-0.371598	-0.260870	0.406156	0.909143	0.092172	0.202917	-0.188078	0.960964
36746	31487549	-2.500629	0.909587	9.423319	0.051728	-0.015200	-0.009622	0.006919	-0.007327	0.003217				-0.006252	0.002274	0.023558	1.000000	0.000009	-0.000009	0.000004	-0.969678	-0.072259	-0.119557	0.200521	5.479752	15.120006	-22.639318	0.890995	-0.371603	-0.260842	0.406159	0.909140	0.092188	0.202884	-0.188082	0.960970
36747	31487574	-2.519893	0.893156	9.408624	0.024764	-0.020166	-0.020236	0.002092	-0.006887	0.002927	-0.178152	0.246415	-1.464660	-0.006300	0.002233	0.023522	1.000000	0.000003	-0.000009	0.000004	-0.969680	-0.072258	-0.119542	0.200522	5.479960	15.118378	-22.639523	0.891001	-0.371609	-0.260814	0.406161	0.909139	0.092192	0.202857	-0.188076	0.960977
36748	31487599	-2.535182	0.849040	9.432414	-0.002364	-0.059065	0.002546	0.006150	-0.006753	0.003837				-0.006338	0.002122	0.023581	1.000000	0.000008	-0.000008	0.000005	-0.969681	-0.072262	-0.119527	0.200523	5.480785	15.116756	-22.639592	0.891007	-0.371613	-0.260787	0.406162	0.909137	0.092207	0.202826	-0.188079	0.960983
36749	31487624	-2.515971	0.842018	9.465656	0.018228	-0.078869	0.028834	0.007343	-0.009203	0.004791				-0.006290	0.002105	0.023664	1.000000	0.000009	-0.000012	0.000006	-0.969683	-0.072268	-0.119508	0.200524	5.481809	15.114772	-22.639554	0.891016	-0.371616	-0.260753	0.406162	0.909135	0.092225	0.202788	-0.188082	0.960990
36750	31487649	-2.542095	0.891569	9.464469	0.014477	-0.023911	0.039075	0.006282	-0.008464	0.007543				-0.006356	0.002229	0.023661	1.000000	0.000008	-0.000011	0.000009	-0.969686	-0.072272	-0.119491	0.200521	5.482789	15.112855	-22.639100	0.891027	-0.371612	-0.260721	0.406156	0.909136	0.092242	0.202753	-0.188084	0.960997
36751	31487674	-2.511676	0.909622	9.432615	0.042238	-0.012673	0.002195	0.000691	-0.010103	0.003488	-0.180094	0.245959	-1.466618	-0.006279	0.002274	0.023581	1.000000	0.000001	-0.000013	0.000004	-0.969688	-0.072269	-0.119473	0.200522	5.482807	15.110761	-22.639268	0.891035	-0.371619	-0.260686	0.406155	0.909136	0.092243	0.202720	-0.188071	0.961007
36752	31487699	-2.503300	0.917922	9.411375	0.048268	-0.004274	-0.019633	0.006543	-0.009416	0.007358				-0.006259	0.002295	0.023528	1.000000	0.000008	-0.000012	0.000009	-0.969690	-0.072274	-0.119454	0.200519	5.483814	15.108711	-22.638854	0.891046	-0.371616	-0.260651	0.406149	0.909137	0.092261	0.202682	-0.188072	0.961014
36753	31487724	-2.500627	0.895871	9.417950	0.042486	-0.026627	-0.016043	0.008349	-0.012180	0.012770				-0.006252	0.002239	0.023545	1.000000	0.000010	-0.000015	0.000016	-0.969695	-0.072281	-0.119431	0.200510	5.485277	15.106193	-22.637681	0.891064	-0.371602	-0.260609	0.406132	0.909142	0.092287	0.202637	-0.188075	0.961023
36754	31487749	-2.529592	0.898611	9.428587	0.019619	-0.015399	0.001980	0.007167	-0.008851	0.007111				-0.006324	0.002246	0.023571	1.000000	0.000009	-0.000011	0.000009	-0.969697	-0.072287	-0.119412	0.200508	5.486367	15.104227	-22.637296	0.891075	-0.371599	-0.260576	0.406127	0.909143	0.092306	0.202600	-0.188078	0.961031
36755	31487774	-2.506150	0.897166	9.440576	0.042036	-0.027965	0.007259	0.011410	-0.007622	0.009155	-0.180602	0.244999	-1.468105	-0.006266	0.002243	0.023601	1.000000	0.000014	-0.000010	0.000011	-0.969699	-0.072298	-0.119394	0.200503	5.488146	15.102409	-22.636592	0.891087	-0.371592	-0.260545	0.406119	0.909143	0.092337	0.202561	-0.188092	0.961036
36756	31487799	-2.503442	0.904014	9.449906	0.048720	-0.024465	0.016155	0.008020	-0.006959	0.006677				-0.006259	0.002260	0.023625	1.000000	0.000010	-0.000009	0.000008	-0.969701	-0.072305	-0.119378	0.200501	5.489348	15.100719	-22.636244	0.891096	-0.371589	-0.260517	0.406116	0.909143	0.092357	0.202528	-0.188099	0.961042
36757	31487824	-2.517151	0.930182	9.439347	0.044613	0.006246	0.011997	0.010930	-0.007041	0.005822				-0.006293	0.002325	0.023598	1.000000	0.000014	-0.000009	0.000007	-0.969702	-0.072315	-0.119361	0.200501	5.490933	15.099029	-22.636024	0.891105	-0.371589	-0.260488	0.406115	0.909140	0.092385	0.202491	-0.188113	0.961047
36758	31487849	-2.518551	0.910956	9.435285	0.034508	-0.009971	0.006682	0.006516	-0.004628	0.005849				-0.006297	0.002277	0.023588	1.000000	0.000008	-0.000006	0.000007	-0.969704	-0.072321	-0.119348	0.200499	5.491896	15.097682	-22.635766	0.891112	-0.371587	-0.260465	0.406113	0.909139	0.092402	0.202464	-0.188118	0.961051
36759	31487874	-2.519906	0.910996	9.424643	0.030786	-0.007628	-0.003197	0.009528	-0.008626	0.009452	-0.180580	0.246929	-1.466604	-0.006300	0.002277	0.023562	1.000000	0.000012	-0.000011	0.000012	-0.969707	-0.072330	-0.119329	0.200494	5.493413	15.095716	-22.635033	0.891125	-0.371579	-0.260432	0.406103	0.909141	0.092428	0.202425	-0.188127	0.961058
36760	31487899	-2.532275	0.924733	9.432670	0.026567	0.008076	0.009009	0.004876	-0.008279	0.007029				-0.006331	0.002312	0.023582	1.000000	0.000006	-0.000010	0.000009	-0.969709	-0.072333	-0.119312	0.200491	5.494173	15.093833	-22.634652	0.891136	-0.371576	-0.260401	0.406097	0.909142	0.092441	0.202392	-0.188126	0.961065
36761	31487924	-2.510306	0.883438	9.432549	0.029166	-0.037748	-0.000645	0.006373	-0.002494	0.008796				-0.006276	0.002208	0.023581	1.000000	0.000008	-0.000003	0.000011	-0.969711	-0.072339	-0.119302	0.200486	5.495236	15.092751	-22.633928	0.891145	-0.371567	-0.260382	0.406088	0.909145	0.092460	0.202370	-0.188133	0.961068
36762	31487949	-2.502116	0.871011	9.445796	0.033780	-0.054619	0.008806	0.005792	-0.005016	0.009358				-0.006255	0.002177	0.023614	1.000000	0.000007	-0.000006	0.000012	-0.969713	-0.072344	-0.119288	0.200480	5.496229	15.091301	-22.633157	0.891156	-0.371558	-0.260358	0.406077	0.909148	0.092477	0.202343	-0.188137	0.961073
36763	31487974	-2.504812	0.865576	9.421837	0.024212	-0.054145	-0.014024	0.003922	-0.003307	0.009277	-0.181965	0.248885	-1.465085	-0.006262	0.002164	0.023555	1.000000	0.000005	-0.000004	0.000012	-0.969716	-0.072348	-0.119277	0.200474	5.496957	15.090096	-22.632374	0.891166	-0.371548	-0.260338	0.406065	0.909152	0.092490	0.202322	-0.188138	0.961078
36764	31487999	-2.525488	0.893063	9.436553	0.019553	-0.024272	0.008045	0.006092	-0.003873	0.009671				-0.006314	0.002232	0.023591	1.000000	0.000008	-0.000005	0.000012	-0.969718	-0.072354	-0.119265	0.200468	5.498008	15.088805	-22.631541	0.891177	-0.371537	-0.260316	0.406054	0.909155	0.092508	0.202297	-0.188143	0.961082
36765	31488024	-2.514436	0.919167	9.448613	0.042079	-0.007155	0.019175	0.011241	-0.004379	0.010090				-0.006286	0.002298	0.023622	1.000000	0.000014	-0.000005	0.000013	-0.969720	-0.072366	-0.119251	0.200462	5.499812	15.087435	-22.630653	0.891188	-0.371525	-0.260293	0.406044	0.909156	0.092539	0.202266	-0.188160	0.961085
36766	31488049	-2.543395	0.932862	9.463282	0.024599	0.013255	0.042078	0.006509	-0.002757	0.008167				-0.006359	0.002332	0.023658	1.000000	0.000008	-0.000003	0.000010	-0.969722	-0.072372	-0.119240	0.200458	5.500869	15.086324	-22.630026	0.891197	-0.371518	-0.260274	0.406036	0.909158	0.092557	0.202244	-0.188167	0.961088
36767	31488074	-2.550250	0.946663	9.455344	0.022253	0.029612	0.037516	0.008392	-0.003979	0.011192	-0.181473	0.246472	-1.465607	-0.006376	0.002366	0.023638	1.000000	0.000010	-0.000005	0.000014	-0.969725	-0.072381	-0.119227	0.200450	5.502308	15.084997	-22.628969	0.891209	-0.371503	-0.260252	0.406023	0.909161	0.092582	0.202216	-0.188178	0.961092
36768	31488099	-2.525490	0.920498	9.452598	0.032885	-0.002851	0.026011	0.005916	-0.001745	0.008100				-0.006314	0.002301	0.023631	1.000000	0.000007	-0.000002	0.000010	-0.969726	-0.072387	-0.119217	0.200446	5.503282	15.084030	-22.628337	0.891218	-0.371495	-0.260235	0.406015	0.909163	0.092598	0.202197	-0.188185	0.961095
36769	31488124	-2.503380	0.924687	9.439334	0.051315	-0.004865	0.007899	0.008082	-0.003816	0.005294				-0.006259	0.002311	0.023598	1.000000	0.000010	-0.000005	0.000007	-0.969727	-0.072395	-0.119205	0.200445	5.504451	15.082807	-22.628150	0.891224	-0.371495	-0.260215	0.406014	0.909161	0.092619	0.202170	-0.188195	0.961098
36770	31488149	-2.497826	0.939836	9.432742	0.060792	0.007967	0.001523	0.007862	-0.003821	0.008996				-0.006245	0.002349	0.023582	1.000000	0.000010	-0.000005	0.000011	-0.969729	-0.072403	-0.119192	0.200440	5.505730	15.081533	-22.627416	0.891234	-0.371485	-0.260193	0.406005	0.909163	0.092641	0.202144	-0.188204	0.961102
36771	31488174	-2.517154	0.921976	9.427334	0.035036	-0.000291	-0.000302	0.008863	-0.003581	0.008376	-0.180989	0.244539	-1.466125	-0.006293	0.002305	0.023568	1.000000	0.000011	-0.000004	0.000010	-0.969731	-0.072412	-0.119180	0.200436	5.507130	15.080301	-22.626770	0.891243	-0.371477	-0.260173	0.405998	0.909164	0.092665	0.202117	-0.188216	0.961105
36772	31488199	-2.510261	0.926098	9.427357	0.042751	0.000995	-0.001691	0.001614	0.001229	0.008005				-0.006276	0.002315	0.023568	1.000000	0.000002	0.000002	0.000010	-0.969733	-0.072414	-0.119175	0.200430	5.507495	15.079760	-22.626110	0.891250	-0.371468	-0.260163	0.405988	0.909168	0.092671	0.202108	-0.188216	0.961107
36773	31488224	-2.507519	0.899986	9.427275	0.034307	-0.023818	-0.004902	0.004168	-0.002089	0.010283				-0.006269	0.002250	0.023568	1.000000	0.000005	-0.000003	0.000013	-0.969735	-0.072418	-0.119165	0.200423	5.508300	15.078715	-22.625161	0.891260	-0.371455	-0.260146	0.405974	0.909173	0.092685	0.202089	-0.188219	0.961111
36774	31488249	-2.526827	0.901334	9.435246	0.019033	-0.017151	0.007906	0.009015	-0.000529	0.009377				-0.006317	0.002253	0.023588	1.000000	0.000011	-0.000001	0.000012	-0.969736	-0.072428	-0.119156	0.200417	5.509772	15.077904	-22.624324	0.891269	-0.371444	-0.260132	0.405965	0.909174	0.092710	0.202069	-0.188234	0.961112
36775	31488274	-2.543531	0.881885	9.484390	0.006183	-0.037985	0.057676	0.005519	0.000648	0.003323	-0.181031	0.246941	-1.466103	-0.006359	0.002205	0.023711	1.000000	0.000007	0.000001	0.000004	-0.969737	-0.072433	-0.119150	0.200418	5.510514	15.077345	-22.624364	0.891271	-0.371445	-0.260123	0.405967	0.909172	0.092723	0.202055	-0.188242	0.961113
36776	31488299	-2.546149	0.924644	9.461929	0.016286	0.006157	0.040734	0.005351	-0.004219	0.003703				-0.006366	0.002311	0.023655	1.000000	0.000007	-0.000005	0.000005	-0.969738	-0.072437	-0.119138	0.200419	5.511229	15.076086	-22.624417	0.891276	-0.371448	-0.260102	0.405968	0.909170	0.092735	0.202030	-0.188246	0.961118
36777	31488324	-2.504571	0.948256	9.387538	0.047625	0.026063	-0.039387	0.008260	-0.004101	0.003348				-0.006262	0.002370	0.023469	1.000000	0.000010	-0.000005	0.000004	-0.969738	-0.072445	-0.119126	0.200421	5.512347	15.074849	-22.624521	0.891281	-0.371452	-0.260081	0.405972	0.909166	0.092755	0.202003	-0.188256	0.961122
36778	31488349	-2.492139	0.938791	9.358235	0.048851	0.018329	-0.071661	0.004025	-0.000134	0.005765				-0.006230	0.002347	0.023396	1.000000	0.000005	-0.000000	0.000007	-0.969739	-0.072449	-0.119119	0.200419	5.512966	15.074144	-22.624212	0.891286	-0.371448	-0.260069	0.405968	0.909167	0.092765	0.201988	-0.188260	0.961124
36779	31488374	-2.512952	0.902791	9.402016	0.024259	-0.014962	-0.027511	0.004454	-0.006329	0.006333	-0.180068	0.245482	-1.466128	-0.006283	0.002257	0.023505	1.000000	0.000006	-0.000008	0.000008	-0.969741	-0.072451	-0.119104	0.200417	5.513645	15.072549	-22.623907	0.891294	-0.371446	-0.260042	0.405964	0.909168	0.092777	0.201960	-0.188259	0.961130
36780	31488399	-2.538021	0.903877	9.491110	0.020218	-0.021247	0.064740	-0.001703	-0.001177	0.007221				-0.006345	0.002260	0.023728	1.000000	-0.000002	-0.000001	0.000009	-0.969743	-0.072448	-0.119098	0.200412	5.513496	15.071675	-22.623397	0.891301	-0.371440	-0.260027	0.405954	0.909172	0.092775	0.201949	-0.188250	0.961134
36781	31488424	-2.515923	0.909377	9.487162	0.041111	-0.023969	0.055710	0.007619	-0.000207	0.009364				-0.006290	0.002273	0.023718	1.000000	0.000010	-0.000000	0.000012	-0.969745	-0.072457	-0.119089	0.200406	5.514768	15.070911	-22.622558	0.891310	-0.371428	-0.260014	0.405944	0.909175	0.092797	0.201931	-0.188262	0.961135
36782	31488449	-2.485453	0.898627	9.419300	0.049978	-0.032290	-0.018433	0.004102	-0.002149	0.010410				-0.006214	0.002246	0.023548	1.000000	0.000005	-0.000003	0.000013	-0.969747	-0.072461	-0.119080	0.200399	5.515569	15.069855	-22.621591	0.891321	-0.371415	-0.259997	0.405930	0.909179	0.092811	0.201912	-0.188264	0.961139
36783	31488474	-2.519918	0.886275	9.416580	0.013525	-0.030228	-0.013238	0.003715	-0.005169	0.003755	-0.180545	0.245971	-1.466118	-0.006300	0.002216	0.023541	1.000000	0.000005	-0.000006	0.000005	-0.969749	-0.072463	-0.119067	0.200400	5.516047	15.068460	-22.621650	0.891326	-0.371419	-0.259973	0.405930	0.909178	0.092819	0.201887	-0.188263	0.961144
36784	31488178																																			
36785	31488499	-2.533713	0.924733	9.429994	0.019297	0.007264	0.006811	0.007373	-0.001600	0.001587				-0.006334	0.002312	0.023575	1.000000	0.000009	-0.000002	0.000002	-0.969748	-0.072470	-0.119058	0.200403	5.516980	15.067604	-22.621979	0.891328	-0.371425	-0.259959	0.405937	0.909173	0.092835	0.201866	-0.188274	0.961147
36786	31488178																																			
36787	31488524	-2.568239	0.943819	9.485911	0.007344	0.026755	0.071304	0.006819	-0.000376	0.010984				-0.006421	0.002359	0.023715	1.000000	0.000009	-0.000000	0.000014	-0.969750	-0.072477	-0.119050	0.200395	5.518199	15.066793	-22.620902	0.891338	-0.371410	-0.259945	0.405923	0.909178	0.092856	0.201848	-0.188284	0.961148
36788	31488549	-2.518493	0.946744	9.430084	0.041335	0.021505	0.004987	0.002933	-0.003983	0.010337				-0.006296	0.002367	0.023575	1.000000	0.000004	-0.000005	0.000013	-0.969753	-0.072480	-0.119038	0.200388	5.518822	15.065477	-22.619973	0.891350	-0.371398	-0.259923	0.405909	0.909183	0.092867	0.201827	-0.188282	0.961153
36789	31488574	-2.479776	0.942808	9.382204	0.064619	0.013139	-0.051356	0.003114	-0.006403	0.005321	-0.181006	0.245499	-1.466116	-0.006200	0.002357	0.023455	1.000000	0.000004	-0.000008	0.000007	-0.969804	-0.072437	-0.119045	0.200153	5.517513	15.063986	-22.592415	0.891534	-0.370971	-0.259898	0.405465	0.909383	0.092846	0.201903	-0.188155	0.961162
36790	31488599	-2.502024	0.917834	9.436641	0.045332	-0.011520	0.004431	0.003673	-0.004351	0.007208				-0.006255	0.002294	0.023592	1.000000	0.000005	-0.000005	0.000009	-0.969806	-0.072440	-0.119033	0.200149	5.518121	15.062660	-22.591953	0.891543	-0.370967	-0.259875	0.405458	0.909385	0.092857	0.201880	-0.188154	0.961167
36791	31488624	-2.540891	0.847363	9.510875	-0.003057	-0.075004	0.079340	-0.001040	-0.003612	0.005659				-0.006352	0.002118	0.023777	1.000000	-0.000001	-0.000005	0.000007	-0.969808	-0.072437	-0.119023	0.200147	5.517998	15.061461	-22.591709	0.891549	-0.370965	-0.259855	0.405451	0.909388	0.092855	0.201863	-0.188144	0.961173
36792	31488649	-2.464816	0.891709	9.421943	0.064652	-0.045967	-0.021787	-0.004886	-0.003490	0.008771				-0.006162	0.002229	0.023555	1.000000	-0.000006	-0.000004	0.000011	-0.969811	-0.072429	-0.119014	0.200140	5.517443	15.060237	-22.591003	0.891559	-0.370956	-0.259834	0.405436	0.909396	0.092846	0.201850	-0.188124	0.961179
36793	31488674	-2.510186	0.928960	9.404751	0.035775	0.007831	-0.023057	0.001767	-0.001268	0.005873	-0.180563	0.245968	-1.466612	-0.006276	0.002322	0.023512	1.000000	0.000002	-0.000002	0.000007	-0.969813	-0.072430	-0.119006	0.200138	5.517738	15.059369	-22.590693	0.891565	-0.370953	-0.259820	0.405431	0.909398	0.092852	0.201836	-0.188122	0.961183
36794	31488699	-2.522701	0.895806	9.435237	0.017162	-0.023380	0.006419	0.002237	0.001061	0.005557				-0.006307	0.002239	0.023588	1.000000	0.000003	0.000001	0.000007	-0.969813	-0.072432	-0.119001	0.200135	5.518098	15.058837	-22.590397	0.891569	-0.370949	-0.259811	0.405427	0.909399	0.092858	0.201826	-0.188124	0.961185
36795	31488724	-2.528204	0.924675	9.441963	0.025112	0.003862	0.016996	-0.003056	-0.003712	0.007151				-0.006321	0.002312	0.023605	1.000000	-0.000004	-0.000005	0.000009	-0.969816	-0.072426	-0.118992	0.200131	5.517742	15.057604	-22.589934	0.891577	-0.370944	-0.259790	0.405417	0.909404	0.092853	0.201811	-0.188108	0.961191
36796	31488749	-2.515648	0.967492	9.412857	0.047699	0.043728	-0.010267	-0.001375	-0.002186	-0.000110				-0.006289	0.002419	0.023532	1.000000	-0.000002	-0.000003	-0.000000	-0.969816	-0.072422	-0.118984	0.200135	5.517354	15.056687	-22.590522	0.891577	-0.370955	-0.259775	0.405423	0.909402	0.092846	0.201798	-0.188098	0.961195
36797	31488774	-2.493662	0.972855	9.438162	0.074553	0.035854	0.008838	-0.004081	-0.003727	-0.001766	-0.179615	0.246434	-1.466125	-0.006234	0.002432	0.023595	1.000000	-0.000005	-0.000005	-0.000002	-0.969817	-0.072414	-0.118976	0.200141	5.516510	15.055574	-22.591375	0.891576	-0.370970	-0.259756	0.405432	0.909399	0.092833	0.201784	-0.188081	0.961202
36798	31488799	-2.550342	0.923164	9.476550	0.011395	0.004586	0.055848	-0.000969	-0.002085	0.002268				-0.006376	0.002308	0.023691	1.000000	-0.000001	-0.000003	0.000003	-0.969818	-0.072411	-0.118968	0.200143	5.516272	15.054640	-22.591610	0.891579	-0.370975	-0.259740	0.405434	0.909399	0.092829	0.201770	-0.188072	0.961206
36799	31488824	-2.566874	0.905353	9.464489	-0.013049	-0.002889	0.046895	-0.006942	-0.002566	-0.000414				-0.006417	0.002264	0.023661	1.000000	-0.000009	-0.000003	-0.000001	-0.969818	-0.072400	-0.118962	0.200147	5.515074	15.053673	-22.592248	0.891579	-0.370987	-0.259724	0.405438	0.909399	0.092810	0.201761	-0.188049	0.961213
36800	31488849	-2.504774	0.868393	9.411198	0.016364	-0.049192	-0.023885	-0.007448	-0.006984	-0.000283				-0.006262	0.002171	0.023528	1.000000	-0.000009	-0.000009	-0.000000	-0.969820	-0.072387	-0.118950	0.200151	5.513792	15.052075	-22.592929	0.891581	-0.371000	-0.259697	0.405442	0.909399	0.092789	0.201744	-0.188021	0.961222
36801	31488874	-2.508952	0.868326	9.423171	0.014856	-0.049961	-0.011319	-0.000532	-0.006931	0.000019	-0.180561	0.246932	-1.466109	-0.006273	0.002171	0.023558	1.000000	-0.000001	-0.000009	0.000000	-0.969821	-0.072383	-0.118937	0.200156	5.513513	15.050481	-22.593566	0.891583	-0.371013	-0.259670	0.405449	0.909397	0.092785	0.201719	-0.188008	0.961230
36802	31488899	-2.546222	0.919034	9.487169	0.014816	-0.001784	0.064582	-0.002928	-0.006194	0.002258				-0.006366	0.002298	0.023718	1.000000	-0.000004	-0.000008	0.000003	-0.969822	-0.072376	-0.118924	0.200158	5.512979	15.048961	-22.593861	0.891588	-0.371020	-0.259644	0.405449	0.909397	0.092776	0.201698	-0.187991	0.961237
36803	31488924	-2.560025	0.925820	9.504479	0.008581	0.006392	0.085434	-0.001755	-0.004958	0.000635				-0.006400	0.002315	0.023761	1.000000	-0.000002	-0.000006	0.000001	-0.969823	-0.072371	-0.118914	0.200161	5.512556	15.047639	-22.594378	0.891590	-0.371030	-0.259622	0.405454	0.909396	0.092770	0.201679	-0.187977	0.961244
36804	31488949	-2.496452	0.922035	9.418035	0.046092	-0.004149	-0.014514	-0.004137	-0.006329	0.001812				-0.006241	0.002305	0.023545	1.000000	-0.000005	-0.000008	0.000002	-0.969825	-0.072362	-0.118902	0.200163	5.511831	15.046105	-22.594740	0.891594	-0.371039	-0.259596	0.405455	0.909397	0.092758	0.201659	-0.187957	0.961252
36805	31488974	-2.464738	0.865693	9.387277	0.045313	-0.061268	-0.057542	-0.004442	-0.003734	0.001684	-0.181537	0.246944	-1.467086	-0.006162	0.002164	0.023468	1.000000	-0.000006	-0.000005	0.000002	-0.969826	-0.072354	-0.118893	0.200165	5.511067	15.044944	-22.595085	0.891597	-0.371046	-0.259577	0.405456	0.909397	0.092746	0.201645	-0.187939	0.961259
36806	31488999	-2.495128	0.840935	9.391166	0.008694	-0.073081	-0.048209	-0.002135	-0.003619	0.005026				-0.006238	0.002102	0.023478	1.000000	-0.000003	-0.000005	0.000006	-0.969828	-0.072350	-0.118883	0.200163	5.510762	15.043752	-22.594934	0.891603	-0.371046	-0.259557	0.405451	0.909400	0.092741	0.201629	-0.187926	0.961264
36807	31489024	-2.546229	0.897056	9.467142	0.001129	-0.017367	0.043291	0.001082	-0.000197	0.001658				-0.006366	0.002243	0.023668	1.000000	0.000001	-0.000000	0.000002	-0.969829	-0.072349	-0.118878	0.200166	5.510802	15.043095	-22.595232	0.891604	-0.371052	-0.259545	0.405455	0.909398	0.092742	0.201618	-0.187923	0.961267
36808	31489049	-2.533775	0.960270	9.496626	0.043613	0.030141	0.074264	-0.001080	-0.004154	-0.000489				-0.006335	0.002401	0.023742	1.000000	-0.000001	-0.000005	-0.000001	-0.969829	-0.072345	-0.118868	0.200171	5.510435	15.041903	-22.595903	0.891604	-0.371064	-0.259525	0.405462	0.909396	0.092737	0.201600	-0.187912	0.961273
36809	31489074	-2.506076	0.961869	9.434127	0.056313	0.033180	0.007116	-0.003478	-0.003994	0.001377	-0.181555	0.246942	-1.467581	-0.006265	0.002405	0.023585	1.000000	-0.000004	-0.000005	0.000002	-0.969830	-0.072338	-0.118858	0.200173	5.509797	15.040709	-22.596299	0.891607	-0.371072	-0.259505	0.405464	0.909396	0.092727	0.201585	-0.187896	0.961280
36810	31489099	-2.514369	0.935797	9.422054	0.035766	0.015103	-0.004755	-0.004306	-0.002801	-0.003399				-0.006286	0.002340	0.023555	1.000000	-0.000005	-0.000004	-0.000004	-0.969830	-0.072330	-0.118851	0.200181	5.508861	15.039750	-22.597380	0.891604	-0.371091	-0.259489	0.405477	0.909392	0.092711	0.201573	-0.187879	0.961286
36811	31489124	-2.587656	0.903808	9.508382	-0.025298	-0.002918	0.094282	-0.002472	-0.002383	0.003263				-0.006469	0.002260	0.023771	1.000000	-0.000003	-0.000003	0.000004	-0.969831	-0.072325	-0.118844	0.200182	5.508445	15.038760	-22.597472	0.891607	-0.371094	-0.259472	0.405475	0.909393	0.092705	0.201560	-0.187866	0.961291
36812	31489149	-2.648484	0.908972	9.600142	-0.059304	0.007358	0.198750	-0.003228	-0.009011	0.004825				-0.006621	0.002272	0.024000	1.000000	-0.000004	-0.000011	0.000006	-0.969834	-0.072317	-0.118828	0.200180	5.507957	15.036802	-22.597428	0.891616	-0.371097	-0.259439	0.405470	0.909396	0.092697	0.201533	-0.187845	0.961300
36813	31489174	-2.514474	0.916403	9.447275	0.032360	-0.006958	0.017718	-0.000055	-0.003327	0.003912	-0.181961	0.246478	-1.466096	-0.006286	0.002291	0.023618	1.000000	-0.000000	-0.000004	0.000005	-0.969835	-0.072315	-0.118818	0.200180	5.507908	15.035668	-22.597437	0.891620	-0.371099	-0.259420	0.405468	0.909397	0.092697	0.201516	-0.187837	0.961306
36814	31489199	-2.414954	0.868733	9.308838	0.073560	-0.061134	-0.145595	0.001967	-0.004293	0.002676				-0.006038	0.002172	0.023272	1.000000	0.000002	-0.000005	0.000003	-0.969836	-0.072315	-0.118807	0.200182	5.508098	15.034413	-22.597643	0.891624	-0.371104	-0.259399	0.405470	0.909396	0.092701	0.201495	-0.187833	0.961311
36815	31489224	-2.456485	0.849202	9.385901	0.044063	-0.078046	-0.062551	0.003374	0.000873	0.005317				-0.006141	0.002123	0.023465	1.000000	0.000004	0.000001	0.000007	-0.969837	-0.072318	-0.118802	0.200180	5.508610	15.033858	-22.597385	0.891628	-0.371101	-0.259390	0.405467	0.909396	0.092710	0.201483	-0.187837	0.961313
36816	31489249	-2.538135	0.836365	9.508190	-0.009580	-0.082249	0.074995	0.000930	-0.005040	0.003542				-0.006345	0.002091	0.023770	1.000000	0.000001	-0.000006	0.000004	-0.969839	-0.072316	-0.118790	0.200181	5.508683	15.032485	-22.597474	0.891633	-0.371105	-0.259367	0.405467	0.909396	0.092711	0.201461	-0.187829	0.961319
36817	31489274	-2.553299	0.856967	9.524211	-0.011753	-0.060915	0.096231	0.002006	-0.007217	0.006002	-0.181951	0.246961	-1.465597	-0.006383	0.002142	0.023810	1.000000	0.000003	-0.000009	0.000008	-0.969841	-0.072316	-0.118775	0.200179	5.508995	15.030767	-22.597231	0.891642	-0.371104	-0.259338	0.405461	0.909398	0.092717	0.201433	-0.187822	0.961326
36818	31489299	-2.521426	0.917658	9.484532	0.032775	-0.010109	0.055449	0.007534	-0.009079	0.004606				-0.006304	0.002294	0.023711	1.000000	0.000009	-0.000011	0.000006	-0.969843	-0.072322	-0.118756	0.200179	5.510039	15.028803	-22.597220	0.891650	-0.371107	-0.259305	0.405462	0.909396	0.092736	0.201396	-0.187826	0.961333
36819	31489324	-2.561226	0.985232	9.450134	0.017551	0.072447	0.038970	0.007708	-0.003682	0.005856				-0.006403	0.002463	0.023625	1.000000	0.000010	-0.000005	0.000007	-0.969844	-0.072329	-0.118744	0.200178	5.511176	15.027591	-22.596947	0.891657	-0.371105	-0.259284	0.405460	0.909395	0.092755	0.201370	-0.187835	0.961337
36820	31489349	-2.599959	0.956114	9.505895	-0.017929	0.049763	0.099916	0.009453	-0.006177	0.004551				-0.006500	0.002390	0.023765	1.000000	0.000012	-0.000008	0.000006	-0.969845	-0.072338	-0.118729	0.200179	5.512503	15.026042	-22.596903	0.891664	-0.371107	-0.259258	0.405462	0.909392	0.092778	0.201336	-0.187846	0.961341
36821	31489374	-2.525342	0.949558	9.414127	0.027389	0.033431	-0.008259	0.001182	-0.005168	0.003794	-0.180957	0.246951	-1.464125	-0.006314	0.002374	0.023535	1.000000	0.000001	-0.000006	0.000005	-0.969846	-0.072336	-0.118717	0.200179	5.512621	15.024647	-22.596957	0.891669	-0.371111	-0.259235	0.405461	0.909392	0.092781	0.201314	-0.187839	0.961348
36822	31489399	-2.459078	0.904407	9.343513	0.053519	-0.018763	-0.097508	0.000066	-0.008507	0.008188				-0.006148	0.002261	0.023359	1.000000	0.000000	-0.000011	0.000010	-0.969850	-0.072334	-0.118701	0.200174	5.512734	15.022715	-22.596409	0.891681	-0.371105	-0.259202	0.405450	0.909396	0.092784	0.201285	-0.187827	0.961356
36823	31489424	-2.489613	0.871134	9.412553	0.026448	-0.050685	-0.026309	0.004107	-0.005861	0.003700				-0.006224	0.002178	0.023531	1.000000	0.000005	-0.000007	0.000005	-0.969851	-0.072336	-0.118687	0.200175	5.513264	15.021222	-22.596486	0.891687	-0.371109	-0.259177	0.405450	0.909395	0.092793	0.201258	-0.187826	0.961362
36824	31489449	-2.527015	0.866677	9.496326	0.007857	-0.056628	0.063507	0.004771	-0.005494	0.007087				-0.006318	0.002166	0.023741	1.000000	0.000006	-0.000007	0.000009	-0.969853	-0.072339	-0.118673	0.200172	5.514021	15.019735	-22.596058	0.891696	-0.371105	-0.259152	0.405444	0.909397	0.092807	0.201231	-0.187827	0.961367
36825	31489474	-2.579497	0.894007	9.557567	-0.015936	-0.023964	0.138522	0.009215	-0.010081	0.005682	-0.182385	0.246012	-1.465105	-0.006449	0.002235	0.023894	1.000000	0.000012	-0.000013	0.000007	-0.969855	-0.072347	-0.118653	0.200172	5.515343	15.017614	-22.595902	0.891706	-0.371106	-0.259116	0.405443	0.909395	0.092830	0.201189	-0.187834	0.961375
36826	31489499	-2.575319	0.969631	9.569792	0.020448	0.040932	0.156214	0.009693	-0.008571	0.004995				-0.006439	0.002424	0.023924	1.000000	0.000012	-0.000011	0.000006	-0.969857	-0.072355	-0.118635	0.200172	5.516713	15.015717	-22.595826	0.891714	-0.371109	-0.259084	0.405444	0.909392	0.092854	0.201150	-0.187843	0.961381
36827	31489524	-2.497693	0.979877	9.403611	0.060027	0.052737	-0.022706	0.003968	-0.009435	0.010033				-0.006245	0.002449	0.023509	1.000000	0.000005	-0.000012	0.000013	-0.969860	-0.072357	-0.118616	0.200165	5.517452	15.013627	-22.595020	0.891728	-0.371100	-0.259049	0.405430	0.909396	0.092867	0.201115	-0.187838	0.961389
36828	31489549	-2.507328	0.890676	9.331459	0.000567	-0.011242	-0.097861	0.002544	-0.004835	0.008890				-0.006268	0.002227	0.023329	1.000000	0.000003	-0.000006	0.000011	-0.969863	-0.072358	-0.118604	0.200160	5.517961	15.012209	-22.594316	0.891738	-0.371091	-0.259025	0.405419	0.909401	0.092876	0.201092	-0.187835	0.961395
36829	31489574	-2.611204	0.836312	9.528093	-0.074857	-0.059229	0.113032	0.007081	-0.007215	0.006726	-0.183341	0.246027	-1.465588	-0.006528	0.002091	0.023820	1.000000	0.000009	-0.000009	0.000008	-0.969865	-0.072364	-0.118587	0.200158	5.519028	15.010482	-22.593966	0.891748	-0.371089	-0.258996	0.405415	0.909401	0.092895	0.201059	-0.187839	0.961401
36830	31489599	-2.542401	0.830667	9.557377	-0.010548	-0.095204	0.122843	0.004926	-0.014287	0.007410				-0.006356	0.002076	0.023893	1.000000	0.000006	-0.000018	0.000009	-0.969868	-0.072366	-0.118563	0.200155	5.519786	15.007736	-22.593615	0.891762	-0.371088	-0.258949	0.405408	0.909402	0.092909	0.201012	-0.187832	0.961412
36831	31489624	-2.475925	0.864128	9.440475	0.038377	-0.067526	-0.003650	0.006041	-0.011444	0.011060				-0.006190	0.002160	0.023601	1.000000	0.000008	-0.000014	0.000014	-0.969872	-0.072370	-0.118541	0.200148	5.520854	15.005346	-22.592686	0.891778	-0.371078	-0.258909	0.405393	0.909407	0.092928	0.200970	-0.187831	0.961421
36832	31489649	-2.511720	0.844969	9.419104	-0.005999	-0.067456	-0.016710	0.000720	-0.012478	0.009264				-0.006280	0.002112	0.023548	1.000000	0.000001	-0.000016	0.000012	-0.969876	-0.072367	-0.118520	0.200142	5.521087	15.002833	-22.592036	0.891792	-0.371072	-0.258867	0.405380	0.909412	0.092933	0.200932	-0.187816	0.961432
36833	31489674	-2.633087	0.902535	9.492384	-0.076747	0.015945	0.090500	0.009124	-0.015385	0.014594	-0.182909	0.246013	-1.466583	-0.006583	0.002256	0.023731	1.000000	0.000011	-0.000019	0.000018	-0.969881	-0.072375	-0.118493	0.200131	5.522717	14.999833	-22.590642	0.891814	-0.371055	-0.258816	0.405359	0.909419	0.092961	0.200879	-0.187817	0.961443
36834	31489699	-2.637237	1.048028	9.585972	-0.003473	0.132086	0.195083	0.017016	-0.017890	0.004807				-0.006594	0.002620	0.023965	1.000000	0.000021	-0.000022	0.000006	-0.969883	-0.072389	-0.118461	0.200134	5.525094	14.996610	-22.590727	0.891827	-0.371062	-0.258762	0.405364	0.909412	0.093002	0.200812	-0.187835	0.961453
36835	31489724	-2.479867	1.041552	9.467661	0.109853	0.090195	0.040019	0.005533	-0.019522	0.016271				-0.006200	0.002604	0.023669	1.000000	0.000007	-0.000024	0.000020	-0.969889	-0.072392	-0.118429	0.200121	5.526258	14.992996	-22.589144	0.891852	-0.371044	-0.258701	0.405337	0.909422	0.093024	0.200753	-0.187824	0.961468
36836	31489749	-2.517048	0.890568	9.368702	-0.004816	-0.014739	-0.059557	0.006220	-0.014345	0.011814				-0.006293	0.002226	0.023422	1.000000	0.000008	-0.000018	0.000015	-0.969894	-0.072396	-0.118404	0.200113	5.527370	14.990181	-22.588145	0.891870	-0.371033	-0.258654	0.405321	0.909427	0.093043	0.200704	-0.187820	0.961479
36837	31489774	-2.579496	0.796504	9.493391	-0.074144	-0.100712	0.067719	0.011049	-0.015974	0.009465	-0.181926	0.245520	-1.465610	-0.006449	0.001991	0.023733	1.000000	0.000014	-0.000020	0.000012	-0.969897	-0.072404	-0.118376	0.200109	5.529077	14.987167	-22.587516	0.891887	-0.371029	-0.258603	0.405312	0.909428	0.093073	0.200648	-0.187826	0.961489
36838	31489799	-2.598757	0.851477	9.520184	-0.064458	-0.048526	0.103573	0.009434	-0.019264	0.013407				-0.006498	0.002128	0.023800	1.000000	0.000012	-0.000024	0.000017	-0.969903	-0.072411	-0.118344	0.200100	5.530691	14.983630	-22.586353	0.891909	-0.371017	-0.258543	0.405294	0.909433	0.093102	0.200585	-0.187825	0.961503
36839	31489824	-2.591924	0.863765	9.545493	-0.049122	-0.044698	0.127282	0.012028	-0.022361	0.013995				-0.006481	0.002159	0.023864	1.000000	0.000015	-0.000028	0.000017	-0.969908	-0.072420	-0.118307	0.200091	5.532688	14.979642	-22.585147	0.891934	-0.371005	-0.258476	0.405276	0.909438	0.093137	0.200513	-0.187826	0.961517
36840	31489849	-2.584924	0.940793	9.549743	-0.011710	0.021893	0.136734	0.013246	-0.025158	0.017145				-0.006463	0.002351	0.023874	1.000000	0.000017	-0.000031	0.000021	-0.969915	-0.072431	-0.118267	0.200079	5.534969	14.975213	-22.583516	0.891963	-0.370987	-0.258401	0.405252	0.909444	0.093177	0.200434	-0.187828	0.961534
36841	31489874	-2.597141	0.983681	9.496662	-0.016669	0.075273	0.092830	0.014251	-0.026655	0.014538	-0.182872	0.246018	-1.465594	-0.006494	0.002459	0.023741	1.000000	0.000018	-0.000033	0.000018	-0.969921	-0.072441	-0.118224	0.200070	5.537288	14.970606	-22.582293	0.891990	-0.370976	-0.258323	0.405233	0.909448	0.093218	0.200350	-0.187831	0.961550
36842	31489899	-2.561291	0.947997	9.467310	-0.005886	0.035211	0.052018	0.008599	-0.025490	0.015558				-0.006404	0.002370	0.023668	1.000000	0.000011	-0.000032	0.000019	-0.969928	-0.072446	-0.118185	0.200059	5.538841	14.966151	-22.580901	0.892017	-0.370962	-0.258248	0.405210	0.909456	0.093246	0.200275	-0.187822	0.961568
36843	31489924	-2.558721	0.857103	9.481636	-0.038315	-0.051054	0.056650	0.008693	-0.024305	0.014429				-0.006398	0.002142	0.023704	1.000000	0.000011	-0.000030	0.000018	-0.969934	-0.072450	-0.118147	0.200050	5.540369	14.961880	-22.579660	0.892043	-0.370950	-0.258176	0.405189	0.909462	0.093274	0.200202	-0.187815	0.961585
36844	31489949	-2.554539	0.851685	9.464335	-0.041156	-0.054058	0.038427	0.004566	-0.029299	0.018667				-0.006387	0.002129	0.023661	1.000000	0.000006	-0.000037	0.000023	-0.969943	-0.072449	-0.118103	0.200034	5.541449	14.956839	-22.577864	0.892076	-0.370931	-0.258091	0.405157	0.909475	0.093294	0.200122	-0.187793	0.961605
36845	31489974	-2.528347	0.877776	9.477743	-0.005411	-0.042710	0.046992	0.012161	-0.029457	0.017223	-0.183378	0.246022	-1.466577	-0.006322	0.002194	0.023694	1.000000	0.000015	-0.000037	0.000022	-0.969950	-0.072457	-0.118058	0.200022	5.543560	14.951795	-22.576285	0.892107	-0.370915	-0.258006	0.405132	0.909482	0.093332	0.200034	-0.187789	0.961625
36846	31489999	-2.565625	0.953239	9.543148	0.003846	0.027528	0.126549	0.014848	-0.032432	0.013356				-0.006415	0.002383	0.023858	1.000000	0.000019	-0.000041	0.000017	-0.969957	-0.072467	-0.118008	0.200016	5.545898	14.946381	-22.575318	0.892136	-0.370909	-0.257915	0.405116	0.909485	0.093373	0.199937	-0.187787	0.961645
36847	31490024	-2.528172	1.007122	9.482154	0.045822	0.074075	0.063274	0.014776	-0.033300	0.018315				-0.006321	0.002517	0.023705	1.000000	0.000018	-0.000042	0.000023	-0.969965	-0.072478	-0.117957	0.200003	5.548411	14.940774	-22.573633	0.892170	-0.370893	-0.257820	0.405090	0.909492	0.093418	0.199837	-0.187785	0.961666
36848	31490049	-2.515648	0.979844	9.411577	0.030980	0.058041	-0.010374	0.008442	-0.030848	0.016820				-0.006290	0.002449	0.023529	1.000000	0.000011	-0.000039	0.000021	-0.969973	-0.072481	-0.117911	0.199991	5.549969	14.935537	-22.572133	0.892201	-0.370879	-0.257732	0.405064	0.909500	0.093446	0.199750	-0.187771	0.961687
36849	31490074	-2.526737	0.938524	9.420737	0.005124	0.022910	-0.002563	0.009696	-0.036512	0.019030	-0.183794	0.245075	-1.465590	-0.006318	0.002346	0.023552	1.000000	0.000012	-0.000046	0.000024	-0.969982	-0.072484	-0.117858	0.199977	5.551769	14.929462	-22.570388	0.892238	-0.370862	-0.257630	0.405033	0.909511	0.093479	0.199649	-0.187754	0.961711
36850	31490099	-2.504841	0.873745	9.443151	0.001645	-0.048200	0.007297	0.013001	-0.038588	0.015984				-0.006263	0.002184	0.023608	1.000000	0.000016	-0.000048	0.000020	-0.969990	-0.072491	-0.117801	0.199967	5.553919	14.923133	-22.569123	0.892272	-0.370853	-0.257523	0.405011	0.909517	0.093518	0.199540	-0.187743	0.961736
36851	31490124	-2.489755	0.870880	9.473744	0.018889	-0.062013	0.032570	0.012502	-0.039685	0.014538				-0.006226	0.002177	0.023684	1.000000	0.000016	-0.000050	0.000018	-0.969999	-0.072496	-0.117743	0.199959	5.555939	14.916668	-22.568087	0.892306	-0.370848	-0.257414	0.404992	0.909521	0.093555	0.199429	-0.187730	0.961762
36852	31490149	-2.487051	0.884577	9.496397	0.030207	-0.054827	0.054947	0.015473	-0.038204	0.016381				-0.006219	0.002211	0.023741	1.000000	0.000019	-0.000048	0.000020	-0.970007	-0.072506	-0.117686	0.199949	5.558459	14.910388	-22.566759	0.892341	-0.370838	-0.257308	0.404970	0.909526	0.093600	0.199318	-0.187725	0.961786
36853	31490174	-2.481459	0.917656	9.475234	0.043420	-0.022914	0.036252	0.014545	-0.035144	0.017625	-0.183821	0.245553	-1.466081	-0.006205	0.002294	0.023688	1.000000	0.000018	-0.000044	0.000022	-0.970015	-0.072515	-0.117633	0.199937	5.560905	14.904528	-22.565203	0.892375	-0.370824	-0.257209	0.404945	0.909533	0.093644	0.199215	-0.187721	0.961808
36854	31490199	-2.466162	0.906892	9.416670	0.039933	-0.027195	-0.025013	0.011241	-0.035144	0.017349				-0.006166	0.002267	0.023541	1.000000	0.000014	-0.000044	0.000022	-0.970023	-0.072521	-0.117581	0.199925	5.562866	14.898671	-22.563689	0.892409	-0.370811	-0.257110	0.404919	0.909541	0.093679	0.199115	-0.187709	0.961831
36855	31490224	-2.510311	0.905404	9.443257	0.004239	-0.017174	0.011770	0.013216	-0.032642	0.015858				-0.006277	0.002263	0.023608	1.000000	0.000017	-0.000041	0.000020	-0.970031	-0.072529	-0.117532	0.199915	5.565063	14.893191	-22.562358	0.892440	-0.370799	-0.257018	0.404897	0.909547	0.093718	0.199019	-0.187704	0.961852
36856	31490249	-2.518510	0.930223	9.436678	0.004544	0.009788	0.009875	0.012821	-0.036602	0.013658				-0.006297	0.002325	0.023591	1.000000	0.000016	-0.000046	0.000017	-0.970038	-0.072536	-0.117478	0.199908	5.567106	14.887178	-22.561410	0.892471	-0.370795	-0.256917	0.404880	0.909550	0.093755	0.198915	-0.187694	0.961875
36857	31490274	-2.490872	0.961901	9.418185	0.037380	0.031991	-0.012047	0.008540	-0.038107	0.013943	-0.184308	0.245559	-1.466569	-0.006228	0.002404	0.023545	1.000000	0.000011	-0.000048	0.000017	-0.970046	-0.072537	-0.117423	0.199900	5.568540	14.880946	-22.560441	0.892503	-0.370791	-0.256811	0.404860	0.909557	0.093782	0.198811	-0.187673	0.961901
36858	31490299	-2.471551	0.952345	9.399542	0.045939	0.019693	-0.035832	0.012863	-0.034808	0.014852				-0.006180	0.002380	0.023499	1.000000	0.000016	-0.000044	0.000019	-0.970054	-0.072544	-0.117371	0.199892	5.570639	14.875171	-22.559291	0.892535	-0.370783	-0.256714	0.404841	0.909561	0.093820	0.198710	-0.187666	0.961923
36859	31490324	-2.463352	0.945400	9.419466	0.053321	0.006778	-0.019416	0.010362	-0.037158	0.014083				-0.006160	0.002363	0.023548	1.000000	0.000013	-0.000046	0.000018	-0.970062	-0.072547	-0.117317	0.199884	5.572343	14.869073	-22.558289	0.892566	-0.370777	-0.256611	0.404821	0.909567	0.093851	0.198607	-0.187650	0.961947
36860	31490349	-2.430116	0.959340	9.368996	0.077774	0.016683	-0.075178	0.009358	-0.030702	0.013880				-0.006076	0.002398	0.023422	1.000000	0.000012	-0.000038	0.000017	-0.970069	-0.072551	-0.117271	0.199875	5.573919	14.863897	-22.557223	0.892595	-0.370770	-0.256524	0.404802	0.909572	0.093880	0.198519	-0.187638	0.961968
36861	31490374	-2.417728	0.911282	9.335579	0.061906	-0.025207	-0.115010	0.006042	-0.032505	0.015678	-0.184292	0.244598	-1.466578	-0.006045	0.002278	0.023339	1.000000	0.000008	-0.000041	0.000020	-0.970077	-0.072550	-0.117223	0.199865	5.575081	14.858439	-22.555919	0.892626	-0.370759	-0.256432	0.404777	0.909581	0.093902	0.198431	-0.187617	0.961990
36862	31490399	-2.431569	0.913916	9.374155	0.057327	-0.024816	-0.074099	0.007921	-0.028770	0.019892				-0.006080	0.002284	0.023435	1.000000	0.000010	-0.000036	0.000025	-0.970085	-0.072554	-0.117179	0.199848	5.576685	14.853455	-22.553939	0.892659	-0.370736	-0.256348	0.404744	0.909593	0.093931	0.198349	-0.187603	0.962010
36863	31490424	-2.401334	0.944023	9.422156	0.105264	-0.017383	-0.032833	0.003736	-0.028117	0.012647				-0.006004	0.002360	0.023555	1.000000	0.000005	-0.000035	0.000016	-0.970092	-0.072551	-0.117138	0.199840	5.577418	14.848665	-22.553019	0.892685	-0.370730	-0.256267	0.404724	0.909600	0.093945	0.198272	-0.187581	0.962030
36864	31490449	-2.430243	0.964673	9.420873	0.086852	0.012629	-0.024714	0.000423	-0.026251	0.014560				-0.006076	0.002412	0.023552	1.000000	0.000001	-0.000033	0.000018	-0.970099	-0.072545	-0.117100	0.199830	5.577755	14.844114	-22.551789	0.892712	-0.370719	-0.256190	0.404699	0.909611	0.093953	0.198203	-0.187553	0.962050
36865	31490474	-2.467512	0.926104	9.420740	0.037347	-0.008739	-0.018903	0.007574	-0.021955	0.014612	-0.185732	0.246547	-1.466543	-0.006169	0.002315	0.023552	1.000000	0.000009	-0.000027	0.000018	-0.970106	-0.072549	-0.117065	0.199819	5.579135	14.840175	-22.550489	0.892736	-0.370705	-0.256124	0.404677	0.909618	0.093978	0.198137	-0.187545	0.962065
36866	31490499	-2.467419	0.912494	9.388776	0.024753	-0.014780	-0.050956	0.002289	-0.026317	0.010683				-0.006169	0.002281	0.023472	1.000000	0.000003	-0.000033	0.000013	-0.970112	-0.072545	-0.117026	0.199813	5.579593	14.835669	-22.549833	0.892759	-0.370703	-0.256048	0.404662	0.909624	0.093987	0.198066	-0.187521	0.962084
36867	31490524	-2.496467	0.934361	9.428722	0.014995	0.008375	-0.003031	0.006558	-0.019798	0.011086				-0.006242	0.002336	0.023572	1.000000	0.000008	-0.000025	0.000014	-0.970117	-0.072548	-0.116994	0.199807	5.580701	14.832087	-22.549023	0.892779	-0.370697	-0.255987	0.404647	0.909628	0.094007	0.198005	-0.187512	0.962098
36868	31490549	-2.540626	0.943869	9.467307	-0.013858	0.026249	0.046287	0.006926	-0.026193	0.018999				-0.006352	0.002359	0.023668	1.000000	0.000009	-0.000033	0.000024	-0.970125	-0.072551	-0.116954	0.199791	5.582138	14.827482	-22.547139	0.892810	-0.370675	-0.255909	0.404615	0.909640	0.094034	0.197930	-0.187499	0.962116
36869	31490574	-2.528210	0.963065	9.476689	0.006131	0.037377	0.053940	0.006726	-0.026283	0.017241	-0.186625	0.246089	-1.465546	-0.006321	0.002407	0.023692	1.000000	0.000008	-0.000033	0.000022	-0.970132	-0.072553	-0.116914	0.199778	5.583479	14.822890	-22.545515	0.892840	-0.370658	-0.255832	0.404587	0.909650	0.094058	0.197854	-0.187485	0.962135
36870	31490599	-2.503533	0.888782	9.475122	-0.003031	-0.038804	0.039133	0.004540	-0.025682	0.014903				-0.006260	0.002222	0.023688	1.000000	0.000006	-0.000032	0.000019	-0.970139	-0.072552	-0.116875	0.199767	5.584420	14.818415	-22.544228	0.892867	-0.370645	-0.255756	0.404563	0.909658	0.094076	0.197782	-0.187467	0.962153
36871	31490624	-2.466337	0.835232	9.451020	0.003097	-0.096761	0.001393	0.005570	-0.021257	0.018550				-0.006167	0.002088	0.023627	1.000000	0.000007	-0.000027	0.000023	-0.970146	-0.072554	-0.116841	0.199752	5.585663	14.814521	-22.542339	0.892895	-0.370622	-0.255691	0.404532	0.909670	0.094098	0.197719	-0.187455	0.962168
36872	31490649	-2.481538	0.809046	9.457581	-0.020666	-0.116273	0.009125	0.011349	-0.024456	0.021043				-0.006205	0.002022	0.023644	1.000000	0.000014	-0.000031	0.000026	-0.970154	-0.072563	-0.116801	0.199735	5.587816	14.810136	-22.540128	0.892927	-0.370595	-0.255617	0.404497	0.909681	0.094136	0.197643	-0.187453	0.962184
36873	31490674	-2.500931	0.815742	9.496158	-0.028496	-0.110456	0.051826	0.015615	-0.026056	0.020261	-0.187096	0.245135	-1.466043	-0.006253	0.002039	0.023740	1.000000	0.000020	-0.000033	0.000025	-0.970161	-0.072577	-0.116759	0.199719	5.590544	14.805533	-22.538057	0.892960	-0.370571	-0.255539	0.404467	0.909690	0.094184	0.197559	-0.187460	0.962200
36874	31490699	-2.495280	0.880490	9.484413	-0.000552	-0.051407	0.045181	0.013340	-0.026570	0.019553				-0.006239	0.002201	0.023711	1.000000	0.000017	-0.000033	0.000024	-0.970168	-0.072587	-0.116716	0.199704	5.592917	14.800867	-22.536097	0.892991	-0.370548	-0.255460	0.404437	0.909699	0.094226	0.197477	-0.187461	0.962217
36875	31490724	-2.487013	0.892865	9.484455	0.010892	-0.043234	0.044277	0.012745	-0.028521	0.020115				-0.006218	0.002232	0.023711	1.000000	0.000016	-0.000036	0.000025	-0.970176	-0.072596	-0.116671	0.199688	5.595219	14.795915	-22.534083	0.893025	-0.370526	-0.255377	0.404405	0.909709	0.094267	0.197390	-0.187458	0.962235
36876	31490749	-2.513075	0.916418	9.447271	-0.011218	-0.005256	0.017371	0.014804	-0.030221	0.021011				-0.006284	0.002290	0.023618	1.000000	0.000019	-0.000038	0.000026	-0.970185	-0.072608	-0.116624	0.199672	5.597843	14.790708	-22.531962	0.893060	-0.370501	-0.255289	0.404373	0.909718	0.094313	0.197298	-0.187459	0.962254
36877	31490774	-2.511654	0.935671	9.446017	-0.003067	0.011760	0.017615	0.013064	-0.023082	0.024065	-0.187555	0.245627	-1.465539	-0.006280	0.002339	0.023615	1.000000	0.000016	-0.000029	0.000030	-0.970193	-0.072620	-0.116585	0.199651	5.600359	14.786475	-22.529287	0.893095	-0.370467	-0.255218	0.404332	0.909732	0.094357	0.197223	-0.187463	0.962269
36878	31490799	-2.524164	0.925918	9.480551	-0.012451	0.001007	0.053117	0.014968	-0.027139	0.023706				-0.006311	0.002314	0.023701	1.000000	0.000019	-0.000034	0.000030	-0.970201	-0.072633	-0.116541	0.199631	5.603119	14.781670	-22.526725	0.893131	-0.370435	-0.255136	0.404294	0.909744	0.094406	0.197138	-0.187467	0.962285
36879	31490824	-2.526887	0.932832	9.476590	-0.013992	0.008886	0.050651	0.017226	-0.030740	0.028370				-0.006318	0.002331	0.023691	1.000000	0.000022	-0.000038	0.000035	-0.970211	-0.072648	-0.116492	0.199606	5.606364	14.776285	-22.523527	0.893174	-0.370395	-0.255046	0.404246	0.909759	0.094463	0.197042	-0.187473	0.962304
36880	31490849	-2.506262	0.907993	9.485829	-0.004826	-0.022998	0.051935	0.012468	-0.032967	0.023127				-0.006267	0.002269	0.023714	1.000000	0.000016	-0.000041	0.000029	-0.970220	-0.072656	-0.116442	0.199587	5.608722	14.770657	-22.521135	0.893213	-0.370367	-0.254951	0.404208	0.909772	0.094505	0.196945	-0.187466	0.962325
36881	31490874	-2.517271	0.968527	9.496654	0.011026	0.033942	0.070888	0.015026	-0.030828	0.022644	-0.188963	0.245653	-1.465521	-0.006294	0.002421	0.023741	1.000000	0.000019	-0.000039	0.000028	-0.970229	-0.072668	-0.116393	0.199569	5.611436	14.765340	-22.518783	0.893250	-0.370339	-0.254861	0.404172	0.909783	0.094553	0.196852	-0.187467	0.962344
36882	31490899	-2.547521	0.958938	9.484645	-0.023346	0.038849	0.066129	0.009942	-0.032623	0.024864				-0.006370	0.002397	0.023711	1.000000	0.000012	-0.000041	0.000031	-0.970239	-0.072674	-0.116344	0.199548	5.613498	14.759736	-22.516130	0.893290	-0.370307	-0.254766	0.404128	0.909799	0.094590	0.196759	-0.187454	0.962365
36883	31490924	-2.551676	0.953415	9.483301	-0.030801	0.035659	0.065367	0.011584	-0.037751	0.028832				-0.006380	0.002383	0.023708	1.000000	0.000014	-0.000047	0.000036	-0.970250	-0.072681	-0.116287	0.199522	5.615925	14.753345	-22.512967	0.893336	-0.370269	-0.254658	0.404076	0.909817	0.094633	0.196653	-0.187441	0.962390
36884	31490949	-2.565412	1.002951	9.491433	-0.022440	0.084473	0.081376	0.004403	-0.033668	0.034358				-0.006415	0.002507	0.023728	1.000000	0.000006	-0.000042	0.000043	-0.970263	-0.072681	-0.116237	0.199488	5.617545	14.747459	-22.508930	0.893387	-0.370216	-0.254559	0.404009	0.909844	0.094663	0.196563	-0.187415	0.962413
36885	31490974	-2.551593	1.003018	9.468827	-0.015603	0.083891	0.056102	0.002258	-0.039344	0.031707	-0.189444	0.244216	-1.466517	-0.006380	0.002507	0.023672	1.000000	0.000003	-0.000049	0.000040	-0.970277	-0.072676	-0.116181	0.199458	5.618737	14.740800	-22.505367	0.893437	-0.370172	-0.254447	0.403946	0.909869	0.094686	0.196463	-0.187379	0.962440
36886	31490999	-2.551732	0.958879	9.504582	-0.027806	0.037510	0.086365	0.000700	-0.041904	0.029445				-0.006381	0.002397	0.023761	1.000000	0.000001	-0.000052	0.000037	-0.970290	-0.072669	-0.116122	0.199431	5.619612	14.733809	-22.502175	0.893486	-0.370134	-0.254329	0.403888	0.909893	0.094704	0.196359	-0.187337	0.962470
36887	31490678																																			
36888	31490678																																			
36889	31491024	-2.547548	0.931473	9.465932	-0.043969	0.018563	0.045499	0.001876	-0.043470	0.030829				-0.006370	0.002328	0.023664	1.000000	0.000002	-0.000054	0.000039	-0.970304	-0.072663	-0.116061	0.199402	5.620700	14.726574	-22.498802	0.893538	-0.370094	-0.254207	0.403827	0.909918	0.094725	0.196250	-0.187296	0.962500
36890	31491049	-2.507555	0.936994	9.467302	-0.007066	0.008838	0.037176	0.003561	-0.046529	0.029407				-0.006270	0.002342	0.023668	1.000000	0.000004	-0.000058	0.000037	-0.970317	-0.072658	-0.115996	0.199375	5.621965	14.718924	-22.495683	0.893589	-0.370058	-0.254077	0.403770	0.909941	0.094750	0.196133	-0.187256	0.962532
36891	31491074	-2.518613	0.943868	9.468634	-0.014885	0.019347	0.041994	0.001997	-0.050160	0.031969	-0.188579	0.244187	-1.468507	-0.006298	0.002359	0.023671	1.000000	0.000002	-0.000063	0.000040	-0.970341	-0.072641	-0.115938	0.199300	5.622453	14.711592	-22.486925	0.893676	-0.369934	-0.253954	0.403621	0.910006	0.094761	0.196044	-0.187187	0.962563
36892	31491099	-2.525477	0.965823	9.480702	-0.011176	0.039900	0.057431	0.003122	-0.046079	0.037685				-0.006315	0.002414	0.023701	1.000000	0.000004	-0.000058	0.000047	-0.970356	-0.072637	-0.115873	0.199263	5.623965	14.703889	-22.482580	0.893735	-0.369879	-0.253824	0.403546	0.910036	0.094790	0.195928	-0.187146	0.962595
36893	31491124	-2.563986	0.992043	9.467449	-0.039167	0.081179	0.056919	-0.003403	-0.056930	0.031430				-0.006412	0.002480	0.023668	1.000000	-0.000004	-0.000071	0.000039	-0.970373	-0.072622	-0.115797	0.199234	5.624268	14.694728	-22.479314	0.893794	-0.369844	-0.253669	0.403481	0.910064	0.094799	0.195794	-0.187081	0.962635
36894	31491149	-2.570923	1.000203	9.494080	-0.038518	0.086564	0.085080	0.003476	-0.059427	0.030357				-0.006429	0.002500	0.023735	1.000000	0.000004	-0.000074	0.000038	-0.970388	-0.072613	-0.115716	0.199207	5.625507	14.685225	-22.476243	0.893853	-0.369812	-0.253509	0.403422	0.910088	0.094824	0.195648	-0.187029	0.962674
36895	31491174	-2.565458	0.963069	9.483305	-0.052151	0.053305	0.069786	-0.002842	-0.059313	0.033003	-0.189976	0.244697	-1.467990	-0.006416	0.002407	0.023708	1.000000	-0.000004	-0.000074	0.000041	-0.970405	-0.072598	-0.115636	0.199176	5.625939	14.675701	-22.472781	0.893914	-0.369774	-0.253348	0.403354	0.910116	0.094835	0.195508	-0.186963	0.962716
36896	31491199	-2.573779	0.956159	9.495252	-0.061823	0.048459	0.082726	-0.000750	-0.062655	0.033842				-0.006436	0.002390	0.023738	1.000000	-0.000001	-0.000078	0.000042	-0.970423	-0.072585	-0.115552	0.199145	5.626690	14.665690	-22.469244	0.893978	-0.369736	-0.253179	0.403285	0.910145	0.094852	0.195359	-0.186899	0.962758
36897	31491224	-2.554512	0.947862	9.512531	-0.046185	0.031336	0.093689	-0.007553	-0.064208	0.035167				-0.006388	0.002370	0.023781	1.000000	-0.000009	-0.000080	0.000044	-0.970441	-0.072563	-0.115468	0.199112	5.626508	14.655438	-22.465534	0.894043	-0.369695	-0.253006	0.403210	0.910178	0.094853	0.195213	-0.186817	0.962804
36898	31491249	-2.536653	0.918899	9.513771	-0.043449	-0.001218	0.087611	-0.003888	-0.067961	0.034508				-0.006344	0.002297	0.023784	1.000000	-0.000005	-0.000085	0.000043	-0.970460	-0.072544	-0.115378	0.199080	5.626813	14.644660	-22.461977	0.894110	-0.369658	-0.252824	0.403138	0.910209	0.094863	0.195055	-0.186741	0.962851
36899	31491274	-2.524232	0.902477	9.496442	-0.043932	-0.016804	0.066237	-0.009727	-0.067396	0.041428	-0.190456	0.244223	-1.468483	-0.006313	0.002256	0.023741	1.000000	-0.000012	-0.000084	0.000052	-0.970481	-0.072519	-0.115290	0.199038	5.626541	14.633866	-22.457389	0.894184	-0.369604	-0.252641	0.403047	0.910249	0.094863	0.194905	-0.186652	0.962898
36900	31491299	-2.507601	0.914956	9.468563	-0.031518	-0.005584	0.036370	-0.005953	-0.074390	0.039709				-0.006271	0.002287	0.023671	1.000000	-0.000007	-0.000093	0.000050	-0.970502	-0.072498	-0.115192	0.199000	5.626718	14.622099	-22.453159	0.894259	-0.369558	-0.252443	0.402963	0.910286	0.094871	0.194734	-0.186565	0.962950
36901	31491324	-2.484232	0.927195	9.499213	-0.001607	-0.008197	0.061149	-0.001620	-0.073095	0.037739				-0.006213	0.002318	0.023747	1.000000	-0.000002	-0.000091	0.000047	-0.970522	-0.072481	-0.115095	0.198965	5.627447	14.610544	-22.449200	0.894332	-0.369516	-0.252247	0.402885	0.910319	0.094889	0.194563	-0.186489	0.962999
36902	31491349	-2.484117	0.954827	9.476685	0.003136	0.021865	0.042047	-0.001879	-0.079854	0.038491				-0.006213	0.002387	0.023691	1.000000	-0.000002	-0.000100	0.000048	-0.970543	-0.072462	-0.114990	0.198930	5.628141	14.598015	-22.445229	0.894408	-0.369475	-0.252036	0.402805	0.910352	0.094906	0.194376	-0.186406	0.963053
36903	31491374	-2.473108	0.957619	9.466040	0.010248	0.022944	0.029284	-0.003457	-0.075716	0.039983	-0.190900	0.242791	-1.468490	-0.006185	0.002394	0.023665	1.000000	-0.000004	-0.000095	0.000050	-0.970564	-0.072443	-0.114890	0.198892	5.628679	14.586055	-22.440979	0.894484	-0.369429	-0.251834	0.402721	0.910388	0.094920	0.194200	-0.186323	0.963104
36904	31491399	-2.484167	0.943825	9.471317	-0.006095	0.014377	0.035839	-0.007227	-0.074725	0.038193				-0.006213	0.002359	0.023678	1.000000	-0.000009	-0.000093	0.000048	-0.970585	-0.072419	-0.114793	0.198856	5.628613	14.574262	-22.436978	0.894558	-0.369386	-0.251635	0.402639	0.910424	0.094924	0.194031	-0.186233	0.963156
36905	31491424	-2.501973	0.963215	9.444776	-0.021522	0.044301	0.016586	-0.003366	-0.081687	0.038794				-0.006257	0.002408	0.023611	1.000000	-0.000004	-0.000102	0.000048	-0.970606	-0.072399	-0.114686	0.198820	5.629096	14.561467	-22.432990	0.894636	-0.369345	-0.251418	0.402557	0.910458	0.094938	0.193841	-0.186145	0.963211
36906	31491449	-2.467496	1.012639	9.471566	0.032394	0.072497	0.038419	-0.007176	-0.082156	0.036444				-0.006171	0.002532	0.023678	1.000000	-0.000009	-0.000103	0.000046	-0.970627	-0.072373	-0.114580	0.198786	5.628943	14.548639	-22.429355	0.894711	-0.369310	-0.251202	0.402480	0.910492	0.094940	0.193655	-0.186048	0.963267
36907	31491474	-2.484087	0.998882	9.474163	0.010513	0.066474	0.043771	-0.009269	-0.083992	0.040318	-0.192261	0.243306	-1.466985	-0.006213	0.002497	0.023685	1.000000	-0.000012	-0.000105	0.000050	-0.970650	-0.072345	-0.114471	0.198748	5.628627	14.535495	-22.425176	0.894791	-0.369266	-0.250980	0.402392	0.910531	0.094941	0.193466	-0.185944	0.963325
36908	31491499	-2.452314	1.011295	9.463590	0.039654	0.069248	0.026794	-0.013718	-0.089377	0.035584				-0.006134	0.002528	0.023658	1.000000	-0.000017	-0.000112	0.000044	-0.970673	-0.072309	-0.114358	0.198715	5.627477	14.521649	-22.421773	0.894869	-0.369236	-0.250746	0.402313	0.910568	0.094927	0.193270	-0.185826	0.963387
36909	31491524	-2.442719	0.946726	9.435442	0.014781	0.012989	-0.008856	-0.009029	-0.085115	0.037250				-0.006109	0.002367	0.023588	1.000000	-0.000011	-0.000106	0.000047	-0.970695	-0.072280	-0.114248	0.198680	5.627076	14.508388	-22.418063	0.894947	-0.369201	-0.250522	0.402232	0.910603	0.094926	0.193079	-0.185722	0.963446
36910	31491549	-2.437200	0.913743	9.419384	0.001251	-0.015207	-0.028838	-0.007936	-0.085808	0.037634				-0.006096	0.002284	0.023548	1.000000	-0.000010	-0.000107	0.000047	-0.970717	-0.072253	-0.114137	0.198646	5.626842	14.495022	-22.414306	0.895025	-0.369164	-0.250296	0.402151	0.910639	0.094928	0.192885	-0.185620	0.963504
36911	31491574	-2.475918	0.902578	9.463216	-0.031744	-0.018188	0.022014	-0.010478	-0.094806	0.040820	-0.191800	0.243777	-1.466986	-0.006193	0.002256	0.023657	1.000000	-0.000013	-0.000119	0.000051	-0.970742	-0.072220	-0.114016	0.198608	5.626327	14.480329	-22.410211	0.895111	-0.369125	-0.250048	0.402062	0.910679	0.094926	0.192674	-0.185504	0.963569
36912	31491599	-2.460712	0.947928	9.479334	0.000826	0.015759	0.038048	-0.013760	-0.096218	0.039166				-0.006155	0.002370	0.023698	1.000000	-0.000017	-0.000120	0.000049	-0.970766	-0.072184	-0.113894	0.198571	5.625276	14.465458	-22.406380	0.895195	-0.369090	-0.249796	0.401975	0.910718	0.094914	0.192462	-0.185379	0.963635
36913	31491624	-2.431822	0.921773	9.476610	0.013503	-0.017171	0.025733	-0.013077	-0.091793	0.038917				-0.006082	0.002305	0.023691	1.000000	-0.000016	-0.000115	0.000049	-0.970790	-0.072148	-0.113777	0.198534	5.624328	14.451222	-22.402521	0.895278	-0.369053	-0.249556	0.401888	0.910757	0.094905	0.192260	-0.185259	0.963699
36914	31491649	-2.413721	0.905592	9.387442	0.003800	-0.020969	-0.066248	-0.013714	-0.094402	0.041863				-0.006037	0.002264	0.023468	1.000000	-0.000017	-0.000118	0.000052	-0.970815	-0.072112	-0.113657	0.198495	5.623387	14.436572	-22.398266	0.895364	-0.369011	-0.249308	0.401795	0.910799	0.094895	0.192052	-0.185136	0.963764
36915	31491674	-2.394480	0.886272	9.408665	0.015230	-0.048530	-0.052419	-0.014751	-0.094052	0.039725	-0.193685	0.244293	-1.466958	-0.005989	0.002216	0.023521	1.000000	-0.000018	-0.000118	0.000050	-0.970839	-0.072075	-0.113538	0.198457	5.622219	14.422002	-22.394322	0.895448	-0.368973	-0.249062	0.401706	0.910840	0.094882	0.191847	-0.185011	0.963829
36916	31491699	-2.383488	0.875243	9.407308	0.018018	-0.061194	-0.057497	-0.011928	-0.096463	0.031780				-0.005962	0.002188	0.023518	1.000000	-0.000015	-0.000121	0.000040	-0.970862	-0.072039	-0.113416	0.198430	5.621154	14.407200	-22.391581	0.895525	-0.368955	-0.248812	0.401636	0.910872	0.094870	0.191633	-0.184890	0.963894
36917	31491724	-2.376584	0.897216	9.418027	0.032880	-0.044584	-0.046785	-0.014746	-0.094047	0.040227				-0.005944	0.002243	0.023544	1.000000	-0.000018	-0.000118	0.000050	-0.970886	-0.072002	-0.113297	0.198391	5.620004	14.392624	-22.387562	0.895609	-0.368916	-0.248565	0.401546	0.910913	0.094857	0.191427	-0.184765	0.963959
36918	31491749	-2.406989	0.905362	9.447297	0.012289	-0.030217	-0.010235	-0.015673	-0.093941	0.042789				-0.006020	0.002264	0.023617	1.000000	-0.000020	-0.000117	0.000053	-0.970912	-0.071964	-0.113177	0.198350	5.618813	14.378028	-22.383165	0.895696	-0.368871	-0.248318	0.401450	0.910957	0.094843	0.191223	-0.184638	0.964024
36919	31491774	-2.389187	0.840628	9.461731	0.002887	-0.097337	-0.006869	-0.015509	-0.094248	0.039342	-0.195569	0.244809	-1.466930	-0.005976	0.002102	0.023654	1.000000	-0.000019	-0.000118	0.000049	-0.970936	-0.071925	-0.113058	0.198313	5.617518	14.363436	-22.379279	0.895780	-0.368835	-0.248072	0.401362	0.910998	0.094827	0.191017	-0.184511	0.964089
36920	31491799	-2.412598	0.836536	9.461705	-0.021995	-0.091335	-0.001471	-0.011468	-0.092378	0.033976				-0.006034	0.002091	0.023654	1.000000	-0.000014	-0.000115	0.000042	-0.970958	-0.071891	-0.112941	0.198283	5.616612	14.349185	-22.376156	0.895857	-0.368809	-0.247831	0.401287	0.911031	0.094818	0.190812	-0.184395	0.964152
36921	31491824	-2.426315	0.857206	9.440479	-0.032505	-0.062419	-0.016581	-0.010248	-0.099681	0.036499				-0.006069	0.002143	0.023600	1.000000	-0.000013	-0.000125	0.000046	-0.970982	-0.071857	-0.112814	0.198250	5.615945	14.333859	-22.372767	0.895940	-0.368782	-0.247572	0.401208	0.911067	0.094813	0.190589	-0.184275	0.964219
36922	31491849	-2.434589	0.831141	9.427084	-0.055380	-0.079596	-0.029926	-0.009367	-0.100943	0.040960				-0.006090	0.002078	0.023567	1.000000	-0.000012	-0.000126	0.000051	-0.971007	-0.071825	-0.112685	0.198212	5.615562	14.318290	-22.368740	0.896028	-0.368744	-0.247308	0.401118	0.911106	0.094814	0.190362	-0.184156	0.964287
36923	31491874	-2.423483	0.880702	9.427253	-0.027813	-0.037475	-0.027778	-0.012960	-0.100650	0.043194	-0.197020	0.246275	-1.467394	-0.006062	0.002202	0.023567	1.000000	-0.000016	-0.000126	0.000054	-0.971033	-0.071788	-0.112557	0.198171	5.614745	14.302731	-22.364377	0.896118	-0.368702	-0.247045	0.401023	0.911149	0.094806	0.190140	-0.184028	0.964355
36924	31491899	-2.433202	0.935491	9.488619	-0.005483	0.006064	0.038994	-0.015172	-0.103922	0.043993				-0.006086	0.002339	0.023721	1.000000	-0.000019	-0.000130	0.000055	-0.971060	-0.071748	-0.112425	0.198129	5.613627	14.286695	-22.359947	0.896211	-0.368659	-0.246774	0.400924	0.911194	0.094794	0.189912	-0.183893	0.964426
36925	31491924	-2.444119	0.934310	9.442051	-0.027268	0.019047	-0.003348	-0.018914	-0.112429	0.042087				-0.006114	0.002336	0.023604	1.000000	-0.000024	-0.000141	0.000053	-0.971088	-0.071702	-0.112284	0.198090	5.611873	14.269473	-22.355920	0.896305	-0.368624	-0.246483	0.400828	0.911238	0.094772	0.189669	-0.183742	0.964502
36926	31491949	-2.437245	0.912328	9.427352	-0.035362	0.000331	-0.021311	-0.011851	-0.111452	0.040446				-0.006097	0.002281	0.023567	1.000000	-0.000015	-0.000139	0.000051	-0.971114	-0.071663	-0.112143	0.198054	5.611073	14.252413	-22.352121	0.896397	-0.368592	-0.246194	0.400738	0.911278	0.094766	0.189421	-0.183607	0.964577
36927	31491974	-2.364077	0.902845	9.392785	0.017284	-0.027627	-0.073551	-0.016078	-0.114423	0.044122	-0.198862	0.245352	-1.466884	-0.005914	0.002257	0.023481	1.000000	-0.000020	-0.000143	0.000055	-0.971143	-0.071620	-0.111999	0.198012	5.609790	14.234879	-22.347823	0.896495	-0.368554	-0.245897	0.400639	0.911323	0.094752	0.189171	-0.183460	0.964654
36928	31491999	-2.355630	0.907246	9.309003	0.008074	-0.009862	-0.156029	-0.019440	-0.115061	0.043659				-0.005893	0.002268	0.023272	1.000000	-0.000024	-0.000144	0.000055	-0.971171	-0.071572	-0.111855	0.197971	5.608004	14.217260	-22.343603	0.896592	-0.368516	-0.245599	0.400539	0.911370	0.094729	0.188923	-0.183305	0.964732
36929	31492024	-2.372454	0.872497	9.411300	-0.004354	-0.052615	-0.056490	-0.019148	-0.117946	0.041215				-0.005935	0.002182	0.023527	1.000000	-0.000024	-0.000147	0.000052	-0.971199	-0.071523	-0.111708	0.197933	5.606161	14.199264	-22.339784	0.896688	-0.368486	-0.245295	0.400445	0.911414	0.094705	0.188668	-0.183148	0.964812
36930	31492049	-2.411242	0.850225	9.475055	-0.038919	-0.068877	0.012422	-0.015995	-0.121653	0.039357				-0.006032	0.002126	0.023687	1.000000	-0.000020	-0.000152	0.000049	-0.971227	-0.071477	-0.111555	0.197898	5.604688	14.180766	-22.336291	0.896783	-0.368461	-0.244982	0.400356	0.911454	0.094688	0.188401	-0.182995	0.964893
36931	31492074	-2.400342	0.836327	9.512244	-0.030671	-0.090860	0.044317	-0.017637	-0.128463	0.040795	-0.200765	0.245865	-1.467350	-0.006005	0.002091	0.023780	1.000000	-0.000022	-0.000161	0.000051	-0.971257	-0.071428	-0.111395	0.197862	5.603006	14.161277	-22.332686	0.896883	-0.368437	-0.244652	0.400263	0.911497	0.094668	0.188121	-0.182832	0.964978
36932	31492099	-2.400276	0.830859	9.496283	-0.038911	-0.091390	0.028383	-0.015803	-0.129448	0.038613				-0.006005	0.002077	0.023740	1.000000	-0.000020	-0.000162	0.000048	-0.971286	-0.071380	-0.111233	0.197829	5.601504	14.141679	-22.329414	0.896982	-0.368417	-0.244320	0.400177	0.911537	0.094651	0.187836	-0.182671	0.965064
36933	31492124	-2.365805	0.807609	9.464292	-0.026351	-0.117924	-0.013098	-0.016451	-0.130847	0.042062				-0.005918	0.002019	0.023660	1.000000	-0.000021	-0.000164	0.000053	-0.971316	-0.071332	-0.111069	0.197792	5.600028	14.121832	-22.325656	0.897084	-0.368390	-0.243985	0.400082	0.911581	0.094634	0.187549	-0.182509	0.965151
36934	31492149	-2.392030	0.807563	9.477575	-0.050491	-0.109278	0.006113	-0.014536	-0.131154	0.042954				-0.005984	0.002019	0.023693	1.000000	-0.000018	-0.000164	0.000054	-0.971346	-0.071286	-0.110905	0.197753	5.598855	14.101930	-22.321771	0.897188	-0.368362	-0.243648	0.399985	0.911624	0.094623	0.187260	-0.182350	0.965237
36935	31492174	-2.404556	0.814226	9.533462	-0.051690	-0.107586	0.063734	-0.006716	-0.131568	0.037369	-0.201648	0.245891	-1.465855	-0.006015	0.002035	0.023833	1.000000	-0.000008	-0.000164	0.000047	-0.971373	-0.071248	-0.110738	0.197723	5.598599	14.082046	-22.318712	0.897285	-0.368346	-0.243311	0.399906	0.911659	0.094627	0.186961	-0.182209	0.965321
36936	31492199	-2.334248	0.836219	9.534892	0.017233	-0.112314	0.050122	-0.007683	-0.130761	0.044015				-0.005840	0.002090	0.023836	1.000000	-0.000010	-0.000163	0.000055	-0.971403	-0.071211	-0.110572	0.197684	5.598445	14.062185	-22.314665	0.897389	-0.368315	-0.242975	0.399810	0.911700	0.094632	0.186666	-0.182066	0.965406
36937	31492224	-2.342328	0.873578	9.485805	0.012638	-0.065084	0.008242	-0.006428	-0.129932	0.044590				-0.005860	0.002184	0.023714	1.000000	-0.000008	-0.000162	0.000056	-0.971432	-0.071175	-0.110407	0.197645	5.598492	14.042434	-22.310523	0.897493	-0.368281	-0.242640	0.399714	0.911741	0.094641	0.186371	-0.181927	0.965489
36938	31492249	-2.336817	0.891436	9.491184	0.022548	-0.050631	0.013803	-0.002584	-0.130300	0.041421				-0.005846	0.002228	0.023727	1.000000	-0.000003	-0.000163	0.000052	-0.971461	-0.071144	-0.110240	0.197610	5.598974	14.022675	-22.306851	0.897594	-0.368256	-0.242306	0.399627	0.911777	0.094658	0.186071	-0.181796	0.965571
36939	31492274	-2.357440	0.916219	9.487271	0.010070	-0.018768	0.017337	0.002062	-0.130013	0.044276	-0.203065	0.245435	-1.466336	-0.005898	0.002290	0.023717	1.000000	0.000003	-0.000163	0.000055	-0.971489	-0.071118	-0.110073	0.197573	5.600222	14.002917	-22.302760	0.897698	-0.368223	-0.241971	0.399536	0.911814	0.094687	0.185767	-0.181676	0.965652
36940	31492299	-2.372411	1.042871	9.482357	0.042998	0.104571	0.028205	-0.005600	-0.133012	0.045976				-0.005935	0.002607	0.023705	1.000000	-0.000007	-0.000166	0.000057	-0.971519	-0.071083	-0.109903	0.197532	5.600422	13.982707	-22.298460	0.897804	-0.368188	-0.241629	0.399437	0.911856	0.094699	0.185464	-0.181536	0.965737
36941	31492324	-2.309202	1.004099	9.540796	0.091904	0.036424	0.065737	-0.000894	-0.129580	0.046895				-0.005777	0.002510	0.023851	1.000000	-0.000001	-0.000162	0.000059	-0.971548	-0.071055	-0.109737	0.197491	5.601339	13.962974	-22.293975	0.897910	-0.368150	-0.241295	0.399339	0.911897	0.094722	0.185164	-0.181410	0.965818
36942	31492349	-2.309104	0.975426	9.480839	0.066372	0.022342	0.005105	-0.002868	-0.128341	0.041291				-0.005777	0.002438	0.023701	1.000000	-0.000004	-0.000160	0.000052	-0.971576	-0.071023	-0.109573	0.197456	5.601777	13.943496	-22.290297	0.898010	-0.368123	-0.240965	0.399252	0.911934	0.094737	0.184869	-0.181281	0.965899
36943	31492374	-2.187873	0.906677	9.451418	0.139532	-0.078630	-0.058972	-0.004596	-0.122011	0.052699	-0.204538	0.244971	-1.468301	-0.005473	0.002266	0.023628	1.000000	-0.000006	-0.000153	0.000066	-0.971606	-0.070993	-0.109416	0.197407	5.602391	13.924760	-22.284853	0.898118	-0.368067	-0.240648	0.399139	0.911981	0.094756	0.184590	-0.181153	0.965976
36944	31492399	-2.158888	0.857330	9.408720	0.135078	-0.125348	-0.111809	-0.004289	-0.120232	0.041096				-0.005401	0.002143	0.023521	1.000000	-0.000005	-0.000150	0.000051	-0.971633	-0.070962	-0.109262	0.197371	5.602644	13.906440	-22.281087	0.898213	-0.368038	-0.240337	0.399051	0.912018	0.094767	0.184314	-0.181028	0.966052
36945	31492424	-2.253361	1.121976	9.303108	0.133717	0.170755	-0.166047	-0.000857	-0.110666	0.046381				-0.005637	0.002805	0.023257	1.000000	-0.000001	-0.000138	0.000058	-0.971660	-0.070938	-0.109119	0.197329	5.603608	13.889410	-22.276408	0.898309	-0.367991	-0.240049	0.398954	0.912058	0.094790	0.184056	-0.180919	0.966122
36946	31492449	-2.237470	1.048142	9.539652	0.159479	0.055843	0.051716	-0.005345	-0.106290	0.046341				-0.005597	0.002620	0.023848	1.000000	-0.000007	-0.000133	0.000058	-0.971686	-0.070910	-0.108982	0.197285	5.603940	13.873005	-22.271673	0.898403	-0.367943	-0.239771	0.398855	0.912101	0.094803	0.183813	-0.180805	0.966190
36947	31492474	-2.284552	0.939303	9.561887	0.075389	-0.029254	0.074180	-0.002281	-0.104336	0.038579	-0.206460	0.245481	-1.469262	-0.005715	0.002348	0.023904	1.000000	-0.000003	-0.000130	0.000048	-0.971710	-0.070884	-0.108847	0.197252	5.604443	13.856986	-22.268050	0.898488	-0.367912	-0.239499	0.398774	0.912134	0.094818	0.183571	-0.180699	0.966256
36948	31492499	-2.110539	1.001681	9.439809	0.231904	-0.013068	-0.079464	-0.011633	-0.098607	0.038950				-0.005279	0.002504	0.023599	1.000000	-0.000015	-0.000123	0.000049	-0.971733	-0.070849	-0.108721	0.197216	5.603639	13.841779	-22.264289	0.898571	-0.367877	-0.239242	0.398688	0.912173	0.094810	0.183351	-0.180577	0.966320
36949	31492524	-2.158613	0.930498	9.334464	0.139070	-0.040235	-0.176485	-0.013556	-0.089519	0.033718				-0.005399	0.002326	0.023336	1.000000	-0.000017	-0.000112	0.000042	-0.971755	-0.070814	-0.108608	0.197185	5.602406	13.827941	-22.261166	0.898645	-0.367850	-0.239007	0.398613	0.912207	0.094795	0.183153	-0.180459	0.966380
36950	31492549	-2.165303	0.970628	9.288038	0.138619	0.008075	-0.215922	-0.010400	-0.083654	0.036624				-0.005416	0.002427	0.023219	1.000000	-0.000013	-0.000105	0.000046	-0.971776	-0.070783	-0.108500	0.197151	5.601747	13.814898	-22.257532	0.898718	-0.367813	-0.238786	0.398533	0.912242	0.094790	0.182966	-0.180353	0.966435
36951	31492574	-2.163991	1.014458	9.336073	0.164331	0.039951	-0.165634	-0.015675	-0.081125	0.031874	-0.206474	0.247405	-1.468750	-0.005412	0.002536	0.023340	1.000000	-0.000020	-0.000101	0.000040	-0.971796	-0.070747	-0.108398	0.197122	5.600173	13.802282	-22.254558	0.898786	-0.367787	-0.238572	0.398462	0.912276	0.094768	0.182789	-0.180238	0.966490
36952	31492599	-2.210733	1.047615	9.308207	0.128539	0.093664	-0.178265	-0.018875	-0.081772	0.027080				-0.005529	0.002619	0.023270	1.000000	-0.000024	-0.000102	0.000034	-0.971815	-0.070706	-0.108295	0.197098	5.597970	13.789642	-22.252298	0.898849	-0.367771	-0.238358	0.398399	0.912306	0.094736	0.182614	-0.180115	0.966546
36953	31492624	-2.248074	1.087257	9.380157	0.122262	0.131789	-0.096065	-0.022061	-0.076577	0.027172				-0.005623	0.002719	0.023450	1.000000	-0.000028	-0.000096	0.000034	-0.971834	-0.070662	-0.108200	0.197073	5.595332	13.777740	-22.249948	0.898910	-0.367753	-0.238156	0.398335	0.912339	0.094696	0.182454	-0.179990	0.966599
36954	31492649	-2.223875	0.962706	9.560673	0.125623	-0.021844	0.060900	-0.025375	-0.078650	0.019558				-0.005562	0.002407	0.023901	1.000000	-0.000032	-0.000098	0.000024	-0.971852	-0.070612	-0.108104	0.197057	5.591945	13.765650	-22.248746	0.898964	-0.367753	-0.237951	0.398287	0.912365	0.094644	0.182293	-0.179855	0.966655
36955	31492674	-2.092887	0.839252	9.448592	0.172493	-0.161455	-0.090238	-0.023839	-0.069419	0.018939	-0.208351	0.247441	-1.468726	-0.005234	0.002099	0.023621	1.000000	-0.000030	-0.000087	0.000024	-0.971868	-0.070567	-0.108019	0.197041	5.588789	13.754884	-22.247500	0.899014	-0.367750	-0.237769	0.398241	0.912390	0.094595	0.182150	-0.179732	0.966705
36956	31492699	-2.148031	0.793880	9.439102	0.101836	-0.179962	-0.090566	-0.017223	-0.059074	0.013335				-0.005372	0.001985	0.023597	1.000000	-0.000022	-0.000074	0.000017	-0.971881	-0.070531	-0.107945	0.197032	5.586419	13.745671	-22.246929	0.899053	-0.367756	-0.237612	0.398210	0.912408	0.094559	0.182025	-0.179633	0.966747
36957	31492724	-2.218313	0.818583	9.460420	0.050975	-0.134356	-0.050905	-0.018989	-0.062086	0.015201				-0.005548	0.002047	0.023651	1.000000	-0.000024	-0.000078	0.000019	-0.971894	-0.070493	-0.107867	0.197021	5.583852	13.736002	-22.246126	0.899095	-0.367759	-0.237449	0.398174	0.912427	0.094520	0.181894	-0.179528	0.966791
36958	31492749	-2.213961	0.895841	9.416797	0.076243	-0.056738	-0.086795	-0.014712	-0.063857	0.015487				-0.005537	0.002240	0.023542	1.000000	-0.000018	-0.000080	0.000019	-0.971908	-0.070460	-0.107787	0.197010	5.581901	13.726077	-22.245307	0.899138	-0.367761	-0.237280	0.398140	0.912445	0.094491	0.181755	-0.179431	0.966835
36959	31492774	-2.132510	0.989398	9.410489	0.184573	0.000615	-0.103359	-0.016035	-0.055121	0.011271	-0.210166	0.246041	-1.467726	-0.005333	0.002474	0.023526	1.000000	-0.000020	-0.000069	0.000014	-0.971919	-0.070426	-0.107718	0.197003	5.579644	13.717457	-22.244981	0.899173	-0.367770	-0.237134	0.398114	0.912460	0.094456	0.181637	-0.179339	0.966874
36960	31492799	-2.090980	1.044632	9.364146	0.234528	0.045126	-0.152778	-0.022136	-0.048326	0.008145				-0.005229	0.002612	0.023410	1.000000	-0.000028	-0.000060	0.000010	-0.971929	-0.070387	-0.107659	0.196999	5.576427	13.709849	-22.245015	0.899202	-0.367782	-0.237005	0.398093	0.912474	0.094405	0.181541	-0.179239	0.966911
36961	31492824	-2.221771	1.112120	9.354982	0.141323	0.157222	-0.124281	-0.016741	-0.042285	-0.000986				-0.005556	0.002781	0.023387	1.000000	-0.000021	-0.000053	-0.000001	-0.971936	-0.070354	-0.107606	0.197006	5.573685	13.703228	-22.246303	0.899219	-0.367813	-0.236893	0.398095	0.912478	0.094361	0.181452	-0.179157	0.966942
36962	31492849	-2.354509	1.073003	9.514398	0.034422	0.142778	0.057602	-0.020857	-0.043227	0.003307				-0.005888	0.002683	0.023786	1.000000	-0.000026	-0.000054	0.000004	-0.971945	-0.070317	-0.107553	0.197007	5.570501	13.696414	-22.246974	0.899241	-0.367834	-0.236777	0.398085	0.912488	0.094310	0.181366	-0.179065	0.966976
36963	31492874	-2.359272	0.916907	9.673493	-0.004112	-0.025328	0.197849	-0.022928	-0.049227	-0.000031	-0.211129	0.247500	-1.467701	-0.005900	0.002293	0.024183	1.000000	-0.000029	-0.000062	-0.000000	-0.971953	-0.070275	-0.107494	0.197012	5.566884	13.688791	-22.248220	0.899262	-0.367865	-0.236648	0.398082	0.912495	0.094252	0.181268	-0.178963	0.967013
36964	31492899	-2.213026	0.886918	9.592341	0.099800	-0.090771	0.081968	-0.026146	-0.047192	-0.000490				-0.005534	0.002218	0.023980	1.000000	-0.000033	-0.000059	-0.000001	-0.971961	-0.070229	-0.107438	0.197018	5.562797	13.681464	-22.249504	0.899282	-0.367897	-0.236524	0.398078	0.912504	0.094186	0.181178	-0.178855	0.967050
36965	31492924	-2.218217	0.873698	9.448632	0.063092	-0.074322	-0.057014	-0.023516	-0.041154	0.001846				-0.005547	0.002185	0.023621	1.000000	-0.000029	-0.000051	0.000002	-0.971969	-0.070189	-0.107388	0.197020	5.559188	13.674966	-22.250358	0.899301	-0.367920	-0.236414	0.398070	0.912513	0.094128	0.181099	-0.178759	0.967082
36966	31492949	-2.277533	0.898296	9.488594	0.026079	-0.036438	-0.002029	-0.018413	-0.036462	-0.000760				-0.005695	0.002246	0.023721	1.000000	-0.000023	-0.000046	-0.000001	-0.971975	-0.070156	-0.107343	0.197026	5.556237	13.669173	-22.251527	0.899316	-0.367948	-0.236315	0.398071	0.912518	0.094080	0.181025	-0.178678	0.967111
36967	31492974	-2.277591	0.924338	9.527250	0.042631	-0.018988	0.037822	-0.013417	-0.036958	0.003991	-0.211094	0.246542	-1.467215	-0.005695	0.002311	0.023818	1.000000	-0.000017	-0.000046	0.000005	-0.971982	-0.070129	-0.107296	0.197027	5.554163	13.663243	-22.252006	0.899336	-0.367965	-0.236215	0.398063	0.912524	0.094048	0.180946	-0.178609	0.967139
36968	31492999	-2.327204	0.935331	9.537895	0.003343	0.008352	0.060867	-0.017039	-0.040704	0.003146				-0.005819	0.002339	0.023844	1.000000	-0.000021	-0.000051	0.000004	-0.971990	-0.070097	-0.107246	0.197029	5.551530	13.656790	-22.252662	0.899356	-0.367985	-0.236105	0.398055	0.912532	0.094006	0.180861	-0.178528	0.967170
36969	31493024	-2.254242	0.948972	9.561919	0.078121	-0.009650	0.068169	-0.015298	-0.033413	-0.000608				-0.005637	0.002373	0.023905	1.000000	-0.000019	-0.000042	-0.000001	-0.971995	-0.070068	-0.107204	0.197035	5.549040	13.651429	-22.253764	0.899369	-0.368011	-0.236014	0.398057	0.912536	0.093966	0.180791	-0.178457	0.967196
36970	31493049	-2.276205	0.927067	9.528589	0.042982	-0.014819	0.039060	-0.017215	-0.032727	-0.001191				-0.005691	0.002318	0.023821	1.000000	-0.000022	-0.000041	-0.000001	-0.972001	-0.070037	-0.107163	0.197041	5.546258	13.646174	-22.254942	0.899382	-0.368037	-0.235925	0.398059	0.912539	0.093921	0.180725	-0.178383	0.967222
36971	31493074	-2.296884	0.895455	9.521824	0.009981	-0.034283	0.034442	-0.013982	-0.031880	0.000842	-0.210137	0.246527	-1.466733	-0.005743	0.002239	0.023804	1.000000	-0.000017	-0.000040	0.000001	-0.972006	-0.070010	-0.107122	0.197045	5.544013	13.641011	-22.255808	0.899396	-0.368059	-0.235838	0.398058	0.912543	0.093885	0.180657	-0.178317	0.967247
36972	31493099	-2.265230	0.889949	9.520495	0.035188	-0.049912	0.025183	-0.014640	-0.034302	-0.000100				-0.005664	0.002225	0.023801	1.000000	-0.000018	-0.000043	-0.000000	-0.972012	-0.069982	-0.107079	0.197051	5.541633	13.635516	-22.256848	0.899410	-0.368084	-0.235745	0.398058	0.912547	0.093847	0.180584	-0.178247	0.967273
36973	31493124	-2.219645	0.865375	9.471214	0.056957	-0.079824	-0.035528	-0.011395	-0.027826	0.000864				-0.005550	0.002164	0.023678	1.000000	-0.000014	-0.000035	0.000001	-0.972017	-0.069960	-0.107043	0.197055	5.539772	13.630931	-22.257653	0.899422	-0.368104	-0.235667	0.398059	0.912550	0.093818	0.180523	-0.178191	0.967295
36974	31493149	-2.175575	0.909262	9.503310	0.119249	-0.061352	-0.010740	-0.005598	-0.025639	0.000030				-0.005440	0.002273	0.023758	1.000000	-0.000007	-0.000032	0.000000	-0.972021	-0.069945	-0.107008	0.197060	5.538721	13.626670	-22.258550	0.899433	-0.368124	-0.235595	0.398063	0.912550	0.093802	0.180461	-0.178150	0.967314
36975	31493174	-2.245990	0.928336	9.559196	0.073092	-0.027603	0.061699	-0.005805	-0.025269	-0.000916	-0.211590	0.247028	-1.467700	-0.005616	0.002321	0.023898	1.000000	-0.000007	-0.000032	-0.000001	-0.972024	-0.069930	-0.106974	0.197067	5.537609	13.622474	-22.259581	0.899442	-0.368147	-0.235523	0.398070	0.912549	0.093784	0.180400	-0.178108	0.967333
36976	31493199	-2.243018	0.938214	9.488743	0.066596	-0.006661	-0.006224	-0.008708	-0.017515	0.001128				-0.005608	0.002346	0.023722	1.000000	-0.000011	-0.000022	0.000001	-0.972027	-0.069913	-0.106949	0.197071	5.536177	13.619355	-22.260201	0.899450	-0.368162	-0.235470	0.398070	0.912551	0.093762	0.180359	-0.178068	0.967348
36977	31493224	-2.194881	0.877662	9.488561	0.085332	-0.079237	-0.023404	-0.007194	-0.017513	0.001077				-0.005488	0.002194	0.023721	1.000000	-0.000009	-0.000022	0.000001	-0.972030	-0.069898	-0.106924	0.197074	5.534961	13.616237	-22.260829	0.899458	-0.368176	-0.235418	0.398072	0.912552	0.093742	0.180317	-0.178030	0.967363
36978	31493249	-2.207381	0.836327	9.500400	0.059305	-0.114097	-0.012876	-0.006893	-0.018154	0.004658				-0.005519	0.002091	0.023751	1.000000	-0.000009	-0.000023	0.000006	-0.972034	-0.069884	-0.106898	0.197073	5.533909	13.612979	-22.260940	0.899470	-0.368183	-0.235362	0.398065	0.912557	0.093726	0.180273	-0.177993	0.967378
36979	31493274	-2.233695	0.794966	9.522843	0.023099	-0.145984	0.011125	-0.005512	-0.010854	0.002463	-0.213483	0.248025	-1.467667	-0.005585	0.001988	0.023807	1.000000	-0.000007	-0.000014	0.000003	-0.972037	-0.069873	-0.106881	0.197075	5.533004	13.610792	-22.261272	0.899476	-0.368192	-0.235325	0.398064	0.912558	0.093711	0.180244	-0.177966	0.967388
36980	31493299	-2.221321	0.805865	9.552162	0.043585	-0.145584	0.037601	-0.003865	-0.006792	0.003164				-0.005554	0.002015	0.023880	1.000000	-0.000005	-0.000008	0.000004	-0.972039	-0.069865	-0.106868	0.197075	5.532372	13.609174	-22.261441	0.899481	-0.368197	-0.235298	0.398063	0.912560	0.093701	0.180223	-0.177946	0.967396
36981	31493324	-2.207431	0.818401	9.510968	0.053536	-0.131736	-0.004340	-0.004862	-0.004001	0.003280				-0.005519	0.002046	0.023777	1.000000	-0.000006	-0.000005	0.000004	-0.972040	-0.069857	-0.106859	0.197075	5.531612	13.607952	-22.261553	0.899485	-0.368201	-0.235277	0.398060	0.912563	0.093689	0.180209	-0.177926	0.967402
36982	31493349	-2.200542	0.810166	9.500302	0.054113	-0.140032	-0.017050	0.006117	-0.007127	0.006570				-0.005502	0.002025	0.023751	1.000000	0.000008	-0.000009	0.000008	-0.972042	-0.069862	-0.106843	0.197073	5.532526	13.606239	-22.261227	0.899493	-0.368198	-0.235248	0.398055	0.912563	0.093705	0.180177	-0.177929	0.967408
36983	31493374	-2.200443	0.821291	9.475086	0.054175	-0.125584	-0.040430	0.004122	0.001526	0.005479	-0.213475	0.247544	-1.467671	-0.005501	0.002053	0.023688	1.000000	0.000005	0.000002	0.000007	-0.972043	-0.069866	-0.106838	0.197071	5.533147	13.605775	-22.260938	0.899497	-0.368194	-0.235240	0.398052	0.912563	0.093716	0.180166	-0.177935	0.967409
36984	31493399	-2.204704	0.803225	9.514930	0.050039	-0.147710	-0.002575	0.007458	0.000687	0.008586				-0.005512	0.002008	0.023787	1.000000	0.000009	0.000001	0.000011	-0.972044	-0.069874	-0.106831	0.197066	5.534349	13.605148	-22.260206	0.899504	-0.368184	-0.235229	0.398043	0.912565	0.093736	0.180150	-0.177948	0.967409
36985	31493424	-2.239175	0.823805	9.536251	0.030897	-0.120270	0.028086	0.009604	0.001898	0.009288				-0.005598	0.002059	0.023841	1.000000	0.000012	0.000002	0.000012	-0.972045	-0.069886	-0.106825	0.197060	5.535887	13.604685	-22.259353	0.899511	-0.368171	-0.235222	0.398034	0.912567	0.093762	0.180135	-0.177966	0.967409
36986	31493449	-2.259879	0.808696	9.537511	0.006517	-0.126936	0.032754	0.008510	0.007887	0.011970				-0.005649	0.002021	0.023844	1.000000	0.000011	0.000010	0.000015	-0.972046	-0.069898	-0.106827	0.197050	5.537381	13.605038	-22.258021	0.899519	-0.368150	-0.235228	0.398018	0.912571	0.093788	0.180134	-0.177988	0.967405
36987	31493474	-2.252816	0.858367	9.497782	0.025646	-0.077497	-0.002691	0.007588	0.011221	0.014594	-0.214992	0.247555	-1.470621	-0.005632	0.002146	0.023745	1.000000	0.000009	0.000014	0.000018	-0.972047	-0.069910	-0.106832	0.197037	5.538845	13.605830	-22.256258	0.899527	-0.368121	-0.235241	0.397995	0.912578	0.093812	0.180142	-0.178011	0.967399
36988	31493499	-2.244394	0.907994	9.474010	0.048567	-0.031474	-0.023013	0.013410	0.011265	0.013764				-0.005611	0.002269	0.023685	1.000000	0.000017	0.000014	0.000017	-0.972048	-0.069929	-0.106836	0.197025	5.541114	13.606640	-22.254615	0.899534	-0.368094	-0.235255	0.397978	0.912582	0.093850	0.180144	-0.178047	0.967392
36989	31493178																																			
36990	31493178																																			
36991	31493524	-2.247216	0.924408	9.503321	0.057824	-0.020913	0.007547	0.009933	0.009260	0.010790				-0.005618	0.002311	0.023758	1.000000	0.000012	0.000012	0.000013	-0.972048	-0.069943	-0.106839	0.197017	5.542776	13.607205	-22.253437	0.899540	-0.368074	-0.235264	0.397965	0.912585	0.093878	0.180145	-0.178074	0.967387
36992	31493549	-2.262525	0.889859	9.543103	0.037565	-0.054361	0.046386	0.012664	0.014043	0.013191				-0.005656	0.002224	0.023858	1.000000	0.000016	0.000018	0.000016	-0.972048	-0.069962	-0.106846	0.197005	5.544928	13.608419	-22.251839	0.899545	-0.368047	-0.235285	0.397948	0.912588	0.093914	0.180154	-0.178111	0.967379
36993	31493574	-2.241632	0.934107	9.480752	0.063225	-0.010506	-0.014593	0.014658	0.016788	0.014961	-0.214929	0.247083	-1.469142	-0.005604	0.002335	0.023702	1.000000	0.000018	0.000021	0.000019	-0.972100	-0.069940	-0.106879	0.196741	5.545510	13.610138	-22.220588	0.899740	-0.367554	-0.235314	0.397455	0.912802	0.093923	0.180274	-0.178033	0.967371
36994	31493599	-2.255371	0.956150	9.474163	0.058431	0.015476	-0.015662	0.012724	0.016065	0.017078				-0.005638	0.002390	0.023686	1.000000	0.000016	0.000020	0.000021	-0.972101	-0.069960	-0.106889	0.196725	5.547811	13.611586	-22.218391	0.899748	-0.367517	-0.235339	0.397429	0.912810	0.093961	0.180287	-0.178072	0.967361
