// General information: 
//  MT Manager version: 2020.5.0 
//  XDA version: 2020.5.0 build 5678 rev 108182 built on 2021-02-04
// Device information: 
//  DeviceId: 077822CD
//  ProductCode: MTi-G-710-2A8G4
//  Firmware Version: 1.7.2
//  Hardware Version: 3.0.0
// Device settings: 
//  Filter Profile: General(1.19)
//  Option Flags: Orientation Smoother Disabled, Position/Velocity Smoother Disabled, Continuous Zero Rotation Update Disabled, AHS Disabled, ICC Disabled
//  GNSS Platform: Portable
// Coordinate system: ENU
PacketCounter	SampleTimeFine	Acc_X	Acc_Y	Acc_Z	FreeAcc_E	FreeAcc_N	FreeAcc_U	Gyr_X	Gyr_Y	Gyr_Z	Mag_X	Mag_Y	Mag_Z	VelInc_X	VelInc_Y	VelInc_Z	OriInc_q0	OriInc_q1	OriInc_q2	OriInc_q3	Quat_q0	Quat_q1	Quat_q2	Quat_q3	Roll	Pitch	Yaw	Mat[1][1]	Mat[2][1]	Mat[3][1]	Mat[1][2]	Mat[2][2]	Mat[3][2]	Mat[1][3]	Mat[2][3]	Mat[3][3]
34147	28211274	-2.383653	0.709003	9.503821	0.011987	0.017539	0.021927	0.003386	0.011843	0.006373	-0.212489	-0.491498	-0.440709	-0.005959	0.001772	0.023760	1.000000	0.000004	0.000015	0.000008	-0.078390	0.118475	-0.046820	-0.988750	4.374295	13.982462	171.470584	-0.959637	0.143922	-0.241625	-0.166110	-0.983326	0.074012	-0.226944	0.111161	0.967543
34148	28211299	-2.385004	0.709122	9.478537	0.019028	0.014497	-0.002201	0.002877	0.009942	0.010265				-0.005962	0.001773	0.023696	1.000000	0.000004	0.000012	0.000013	-0.078381	0.118481	-0.046825	-0.988750	4.374931	13.983154	171.471682	-0.959637	0.143904	-0.241637	-0.166095	-0.983328	0.074022	-0.226956	0.111169	0.967539
34149	28211324	-2.376824	0.662287	9.489027	0.016462	0.063009	0.002504	0.001943	0.010426	0.012895				-0.005942	0.001656	0.023723	1.000000	0.000002	0.000013	0.000016	-0.078369	0.118488	-0.046829	-0.988750	4.375529	13.983886	171.473172	-0.959638	0.143878	-0.241649	-0.166073	-0.983331	0.074032	-0.226969	0.111175	0.967536
34150	28211349	-2.368478	0.696671	9.491820	0.002264	0.030958	0.005734	0.007057	0.003758	0.012061				-0.005921	0.001741	0.023730	1.000000	0.000009	0.000005	0.000015	-0.078360	0.118485	-0.046838	-0.988750	4.376811	13.983675	171.474465	-0.959642	0.143857	-0.241645	-0.166055	-0.983332	0.074054	-0.226965	0.111192	0.967535
34151	28211374	-2.383555	0.766920	9.474742	0.008777	-0.042076	-0.001939	0.004236	0.006656	0.006890	-0.212505	-0.490537	-0.440700	-0.005959	0.001917	0.023687	1.000000	0.000005	0.000008	0.000009	-0.078355	0.118487	-0.046844	-0.988750	4.377513	13.983935	171.475029	-0.959642	0.143847	-0.241650	-0.166049	-0.983332	0.074066	-0.226968	0.111202	0.967533
34152	28211399	-2.390295	0.805544	9.454921	0.013346	-0.083052	-0.016625	0.005506	0.009012	0.011729				-0.005975	0.002014	0.023637	1.000000	0.000007	0.000011	0.000015	-0.078345	0.118492	-0.046852	-0.988750	4.378575	13.984478	171.476332	-0.959643	0.143825	-0.241659	-0.166031	-0.983334	0.074083	-0.226976	0.111217	0.967529
34153	28211424	-2.393291	0.720040	9.495861	0.021024	0.005523	0.017374	0.010423	0.010717	0.011830				-0.005983	0.001800	0.023740	1.000000	0.000013	0.000013	0.000015	-0.078336	0.118498	-0.046866	-0.988749	4.380350	13.985263	171.477669	-0.959643	0.143802	-0.241672	-0.166016	-0.983334	0.074113	-0.226987	0.111244	0.967524
34154	28211449	-2.379596	0.684221	9.511721	0.010244	0.044546	0.026754	0.003965	0.006938	0.012536				-0.005949	0.001710	0.023779	1.000000	0.000005	0.000009	0.000016	-0.078325	0.118500	-0.046873	-0.988750	4.381215	13.985501	171.479067	-0.959646	0.143778	-0.241676	-0.165996	-0.983336	0.074128	-0.226991	0.111254	0.967521
34155	28211474	-2.375579	0.686790	9.559607	-0.004982	0.048354	0.072314	0.010207	0.007106	0.015725	-0.212036	-0.490546	-0.440706	-0.005939	0.001717	0.023899	1.000000	0.000013	0.000009	0.000020	-0.078311	0.118501	-0.046887	-0.988750	4.383088	13.985728	171.480937	-0.959650	0.143747	-0.241680	-0.165972	-0.983338	0.074159	-0.226993	0.111279	0.967518
34156	28211499	-2.314694	0.729733	9.486632	-0.054047	0.006855	-0.009821	0.004864	0.011282	0.014929				-0.005786	0.001824	0.023717	1.000000	0.000006	0.000014	0.000019	-0.078297	0.118509	-0.046895	-0.988750	4.384178	13.986560	171.482736	-0.959651	0.143716	-0.241694	-0.165946	-0.983341	0.074177	-0.227007	0.111293	0.967513
34157	28211524	-2.373810	0.727144	9.436058	0.014335	-0.004364	-0.044656	0.008398	0.015974	0.015704				-0.005934	0.001817	0.023590	1.000000	0.000010	0.000020	0.000020	-0.078282	0.118521	-0.046908	-0.988749	4.385815	13.988054	171.484703	-0.959649	0.143683	-0.241720	-0.165921	-0.983343	0.074204	-0.227031	0.111317	0.967505
34158	28211549	-2.456749	0.704850	9.515738	0.079527	0.014885	0.050828	0.011031	0.010711	0.015788				-0.006142	0.001762	0.023789	1.000000	0.000014	0.000013	0.000020	-0.078267	0.118527	-0.046924	-0.988749	4.387818	13.988794	171.486623	-0.959651	0.143650	-0.241732	-0.165897	-0.983345	0.074238	-0.227042	0.111345	0.967499
34159	28211574	-2.448426	0.765356	9.529232	0.058395	-0.041458	0.066370	0.013804	0.007595	0.015122	-0.210647	-0.490575	-0.441219	-0.006121	0.001913	0.023823	1.000000	0.000017	0.000009	0.000019	-0.078254	0.118529	-0.046943	-0.988748	4.390186	13.989098	171.488409	-0.959654	0.143620	-0.241737	-0.165876	-0.983345	0.074278	-0.227043	0.111380	0.967495
34160	28211599	-2.462421	0.740289	9.607614	0.058405	-0.009524	0.143723	0.019379	0.005656	0.017112				-0.006156	0.001850	0.024019	1.000000	0.000024	0.000007	0.000021	-0.078240	0.118527	-0.046968	-0.988749	4.393418	13.989102	171.490467	-0.959659	0.143585	-0.241737	-0.165853	-0.983345	0.074333	-0.227038	0.111427	0.967490
34161	28211624	-2.480615	0.697331	9.688598	0.064687	0.039720	0.223276	0.020464	0.005727	0.017560				-0.006201	0.001743	0.024222	1.000000	0.000026	0.000007	0.000022	-0.078225	0.118526	-0.046995	-0.988749	4.396822	13.989111	171.492591	-0.959665	0.143550	-0.241737	-0.165831	-0.983344	0.074390	-0.227033	0.111477	0.967486
34162	28211649	-2.340663	0.802804	9.441640	-0.031044	-0.070983	-0.041631	0.016634	0.007878	0.020863				-0.005851	0.002006	0.023604	1.000000	0.000021	0.000010	0.000026	-0.078206	0.118528	-0.047019	-0.988749	4.399800	13.989392	171.495225	-0.959670	0.143505	-0.241742	-0.165797	-0.983346	0.074440	-0.227034	0.111518	0.967481
34163	28211674	-2.333546	0.726318	9.300396	0.006736	-0.010115	-0.185690	0.011985	0.009507	0.023460	-0.209646	-0.491066	-0.439751	-0.005834	0.001815	0.023251	1.000000	0.000015	0.000012	0.000029	-0.078182	0.118531	-0.047037	-0.988749	4.402209	13.989876	171.498261	-0.959676	0.143454	-0.241750	-0.165756	-0.983350	0.074481	-0.227041	0.111549	0.967476
34164	28211699	-2.389202	0.575810	9.434210	0.055046	0.145288	-0.053995	0.016278	0.002560	0.021236				-0.005973	0.001439	0.023586	1.000000	0.000020	0.000003	0.000027	-0.078162	0.118526	-0.047059	-0.988751	4.405135	13.989392	171.500890	-0.959684	0.143411	-0.241742	-0.165721	-0.983352	0.074530	-0.227029	0.111587	0.967474
34165	28211724	-2.382500	0.642766	9.554147	0.010526	0.094559	0.065406	0.022893	0.002037	0.028634				-0.005956	0.001606	0.023885	1.000000	0.000029	0.000003	0.000036	-0.078134	0.118519	-0.047090	-0.988752	4.409271	13.988752	171.504602	-0.959696	0.143349	-0.241731	-0.165673	-0.983355	0.074600	-0.227014	0.111642	0.967471
34166	28211749	-2.332794	0.751412	9.573149	-0.059292	-0.002310	0.079884	0.024959	0.002512	0.026460				-0.005832	0.001878	0.023933	1.000000	0.000031	0.000003	0.000033	-0.078109	0.118513	-0.047124	-0.988753	4.413626	13.988204	171.508000	-0.959707	0.143292	-0.241722	-0.165631	-0.983357	0.074674	-0.226999	0.111702	0.967468
34167	28211774	-2.331187	0.803937	9.502822	-0.053636	-0.060945	0.015388	0.021774	0.006883	0.026180	-0.209619	-0.491543	-0.439261	-0.005828	0.002009	0.023757	1.000000	0.000027	0.000009	0.000033	-0.078084	0.118513	-0.047154	-0.988754	4.417527	13.988283	171.511406	-0.959715	0.143235	-0.241723	-0.165589	-0.983359	0.074740	-0.226995	0.111756	0.967463
34168	28211799	-2.406852	0.812370	9.465570	0.026106	-0.083624	-0.001726	0.021526	0.010173	0.026360				-0.006017	0.002030	0.023664	1.000000	0.000027	0.000013	0.000033	-0.078058	0.118516	-0.047184	-0.988754	4.421408	13.988829	171.514876	-0.959722	0.143177	-0.241733	-0.165545	-0.983361	0.074805	-0.227000	0.111810	0.967455
34169	28211824	-2.464852	0.764116	9.487992	0.084768	-0.041365	0.030377	0.020126	0.007536	0.027916				-0.006162	0.001909	0.023720	1.000000	0.000025	0.000009	0.000035	-0.078031	0.118516	-0.047213	-0.988755	4.425137	13.988981	171.518545	-0.959730	0.143115	-0.241735	-0.165497	-0.983364	0.074868	-0.226999	0.111860	0.967450
34170	28211849	-2.481564	0.703485	9.519705	0.103914	0.020104	0.060552	0.023125	0.002131	0.026812				-0.006204	0.001758	0.023799	1.000000	0.000029	0.000003	0.000034	-0.078005	0.118510	-0.047244	-0.988756	4.429240	13.988374	171.521990	-0.959741	0.143058	-0.241725	-0.165453	-0.983366	0.074938	-0.226984	0.111915	0.967447
34171	28211874	-2.387978	0.638710	9.538161	0.020837	0.100003	0.050918	0.025262	-0.000598	0.026457	-0.210629	-0.490573	-0.440724	-0.005970	0.001596	0.023845	1.000000	0.000032	-0.000001	0.000033	-0.077980	0.118500	-0.047278	-0.988758	4.433630	13.987380	171.525351	-0.959754	0.143002	-0.241708	-0.165412	-0.983368	0.075012	-0.226961	0.111975	0.967445
34172	28211899	-2.348024	0.616731	9.523481	-0.010291	0.126611	0.025397	0.030990	0.004099	0.031400				-0.005870	0.001541	0.023809	1.000000	0.000039	0.000005	0.000039	-0.077950	0.118494	-0.047320	-0.988759	4.439029	13.987002	171.529494	-0.959766	0.142933	-0.241702	-0.165362	-0.983369	0.075103	-0.226947	0.112050	0.967440
34173	28211924	-2.390749	0.677165	9.560896	0.012433	0.066237	0.076455	0.034320	0.003965	0.027281				-0.005977	0.001692	0.023902	1.000000	0.000043	0.000005	0.000034	-0.077925	0.118489	-0.047366	-0.988759	4.444758	13.986651	171.533028	-0.959776	0.142874	-0.241696	-0.165323	-0.983368	0.075200	-0.226932	0.112133	0.967434
34174	28211949	-2.379549	0.719991	9.507835	0.006756	0.020655	0.025636	0.030966	0.006600	0.033407				-0.005949	0.001799	0.023770	1.000000	0.000039	0.000008	0.000042	-0.077892	0.118487	-0.047408	-0.988760	4.450232	13.986607	171.537495	-0.959787	0.142799	-0.241695	-0.165268	-0.983370	0.075293	-0.226924	0.112209	0.967427
34175	28211974	-2.408468	0.682920	9.491748	0.044377	0.052218	0.014267	0.036119	0.005332	0.025913	-0.211116	-0.490567	-0.441213	-0.006021	0.001706	0.023729	1.000000	0.000045	0.000007	0.000032	-0.077870	0.118483	-0.047456	-0.988760	4.456174	13.986465	171.540844	-0.959796	0.142743	-0.241693	-0.165234	-0.983368	0.075393	-0.226911	0.112298	0.967420
34176	28211999	-2.494236	0.619274	9.579270	0.117877	0.113548	0.114844	0.040853	-0.000124	0.034049				-0.006236	0.001547	0.023948	1.000000	0.000051	-0.000000	0.000043	-0.077838	0.118471	-0.047510	-0.988761	4.463068	13.985453	171.545327	-0.959812	0.142669	-0.241676	-0.165183	-0.983368	0.075510	-0.226883	0.112396	0.967415
34177	28212024	-2.484556	0.664634	9.600704	0.096706	0.073912	0.136655	0.042015	-0.003238	0.037389				-0.006212	0.001660	0.024002	1.000000	0.000053	-0.000004	0.000047	-0.077802	0.118455	-0.047566	-0.988763	4.470239	13.983958	171.550267	-0.959830	0.142587	-0.241650	-0.165125	-0.983369	0.075631	-0.226847	0.112496	0.967412
34178	28212049	-2.289595	0.734304	9.366947	-0.048662	0.007986	-0.131318	0.041260	0.001355	0.034817				-0.005724	0.001834	0.023417	1.000000	0.000052	0.000002	0.000044	-0.077769	0.118446	-0.047621	-0.988764	4.477223	13.983147	171.554880	-0.959845	0.142510	-0.241636	-0.165072	-0.983368	0.075750	-0.226823	0.112595	0.967406
34179	28212074	-2.329628	0.778133	9.414954	-0.028099	-0.034114	-0.071880	0.045152	0.000870	0.036605	-0.211125	-0.490086	-0.441208	-0.005824	0.001944	0.023538	1.000000	0.000056	0.000001	0.000046	-0.077735	0.118435	-0.047681	-0.988765	4.484826	13.982247	171.559751	-0.959861	0.142429	-0.241621	-0.165017	-0.983368	0.075878	-0.226795	0.112704	0.967399
34180	28212099	-2.424884	0.795710	9.504089	0.040616	-0.053725	0.038704	0.044645	0.002147	0.037472				-0.006062	0.001988	0.023760	1.000000	0.000056	0.000003	0.000047	-0.077699	0.118425	-0.047741	-0.988766	4.492391	13.981519	171.564764	-0.959877	0.142345	-0.241609	-0.164960	-0.983367	0.076006	-0.226771	0.112812	0.967392
34181	28212124	-2.274513	0.772613	9.421629	-0.080939	-0.017815	-0.079149	0.041893	0.002456	0.036138				-0.005686	0.001930	0.023554	1.000000	0.000052	0.000003	0.000045	-0.077665	0.118417	-0.047797	-0.988767	4.499515	13.980849	171.569584	-0.959891	0.142265	-0.241598	-0.164905	-0.983367	0.076127	-0.226749	0.112914	0.967386
34182	28212149	-2.292344	0.763118	9.380348	-0.052694	-0.014397	-0.115496	0.045705	0.005162	0.035538				-0.005731	0.001906	0.023451	1.000000	0.000057	0.000006	0.000044	-0.077632	0.118411	-0.047858	-0.988768	4.507171	13.980571	171.574347	-0.959904	0.142186	-0.241593	-0.164853	-0.983366	0.076256	-0.226732	0.113026	0.967377
34183	28212174	-2.393220	0.808037	9.524091	0.003994	-0.055425	0.051366	0.042550	0.012895	0.036006	-0.212028	-0.491026	-0.440711	-0.005983	0.002019	0.023810	1.000000	0.000053	0.000016	0.000045	-0.077597	0.118415	-0.047916	-0.988767	4.514414	13.981392	171.579269	-0.959913	0.142103	-0.241607	-0.164798	-0.983366	0.076378	-0.226734	0.113133	0.967364
34184	28212199	-2.364268	0.761397	9.486708	-0.007430	-0.008492	0.004644	0.044200	0.010882	0.032943				-0.005910	0.001902	0.023717	1.000000	0.000055	0.000014	0.000041	-0.077566	0.118417	-0.047975	-0.988767	4.521779	13.981960	171.583717	-0.959922	0.142028	-0.241616	-0.164752	-0.983364	0.076502	-0.226731	0.113243	0.967352
34185	28212224	-2.360141	0.707755	9.466591	0.002046	0.043802	-0.019926	0.045601	0.011693	0.028309				-0.005900	0.001768	0.023667	1.000000	0.000057	0.000015	0.000035	-0.077542	0.118420	-0.048036	-0.988765	4.529182	13.982695	171.587492	-0.959928	0.141964	-0.241629	-0.164717	-0.983360	0.076627	-0.226730	0.113357	0.967339
34186	28212249	-2.351875	0.738004	9.477323	-0.013151	0.017752	-0.009224	0.047438	0.009516	0.030899				-0.005879	0.001843	0.023693	1.000000	0.000059	0.000012	0.000039	-0.077514	0.118420	-0.048098	-0.988764	4.536934	13.983090	171.591623	-0.959937	0.141895	-0.241636	-0.164678	-0.983356	0.076758	-0.226722	0.113475	0.967326
34187	28212274	-2.361510	0.768223	9.493381	-0.012516	-0.010158	0.010948	0.048372	0.010331	0.030465	-0.214355	-0.490979	-0.440186	-0.005904	0.001919	0.023734	1.000000	0.000060	0.000013	0.000038	-0.077487	0.118421	-0.048162	-0.988763	4.544806	13.983605	171.595701	-0.959945	0.141826	-0.241644	-0.164640	-0.983352	0.076890	-0.226716	0.113595	0.967314
34188	28212299	-2.384902	0.744957	9.461375	0.021143	0.007003	-0.016151	0.047070	0.012626	0.031456				-0.005962	0.001861	0.023654	1.000000	0.000059	0.000016	0.000039	-0.077459	0.118425	-0.048225	-0.988762	4.552534	13.984436	171.599951	-0.959952	0.141754	-0.241658	-0.164598	-0.983349	0.077021	-0.226716	0.113713	0.967300
34189	28212324	-2.357362	0.749029	9.481360	-0.010496	0.010711	-0.003163	0.053567	0.014906	0.031821				-0.005893	0.001871	0.023704	1.000000	0.000067	0.000019	0.000040	-0.077431	0.118430	-0.048296	-0.988760	4.561212	13.985588	171.604281	-0.959957	0.141681	-0.241678	-0.164560	-0.983344	0.077167	-0.226719	0.113847	0.967283
34190	28212349	-2.334014	0.709048	9.487883	-0.027731	0.055670	-0.005592	0.057952	0.013687	0.031105				-0.005835	0.001771	0.023720	1.000000	0.000072	0.000017	0.000039	-0.077404	0.118434	-0.048373	-0.988758	4.570490	13.986573	171.608492	-0.959964	0.141610	-0.241695	-0.164526	-0.983337	0.077323	-0.226718	0.113992	0.967267
34191	28212374	-2.360346	0.671830	9.514341	-0.002286	0.093242	0.023470	0.060478	0.012074	0.033636	-0.214265	-0.491929	-0.438217	-0.005901	0.001678	0.023786	1.000000	0.000076	0.000015	0.000042	-0.077375	0.118436	-0.048452	-0.988756	4.580215	13.987299	171.613056	-0.959972	0.141533	-0.241707	-0.164487	-0.983331	0.077487	-0.226711	0.114143	0.967251
34192	28212399	-2.364338	0.737909	9.503924	-0.006781	0.028151	0.019480	0.061677	0.013371	0.035527				-0.005911	0.001843	0.023760	1.000000	0.000077	0.000017	0.000044	-0.077344	0.118439	-0.048534	-0.988754	4.590182	13.988187	171.617914	-0.959980	0.141451	-0.241722	-0.164444	-0.983325	0.077655	-0.226707	0.114297	0.967233
34193	28212424	-2.366961	0.794417	9.482827	-0.008719	-0.028500	0.004107	0.061928	0.014806	0.038105				-0.005917	0.001984	0.023707	1.000000	0.000077	0.000019	0.000048	-0.077309	0.118444	-0.048616	-0.988752	4.600282	13.989250	171.623169	-0.959989	0.141362	-0.241740	-0.164395	-0.983320	0.077825	-0.226706	0.114452	0.967215
34194	28212449	-2.370998	0.780854	9.438881	0.007404	-0.019103	-0.038475	0.061478	0.014995	0.038099				-0.005927	0.001950	0.023597	1.000000	0.000077	0.000019	0.000048	-0.077274	0.118449	-0.048698	-0.988750	4.610318	13.990339	171.628425	-0.959997	0.141273	-0.241758	-0.164346	-0.983314	0.077994	-0.226706	0.114606	0.967197
34195	28212474	-2.391606	0.853674	9.456409	0.011254	-0.089658	-0.010831	0.068453	0.014982	0.037903	-0.213780	-0.492899	-0.438232	-0.005979	0.002132	0.023641	1.000000	0.000086	0.000019	0.000047	-0.077241	0.118453	-0.048788	-0.988748	4.621345	13.991427	171.633653	-0.960006	0.141185	-0.241777	-0.164302	-0.983307	0.078180	-0.226703	0.114777	0.967177
34196	28212499	-2.438621	0.886395	9.541622	0.031958	-0.117281	0.085528	0.057492	0.011383	0.037754				-0.006096	0.002214	0.023854	1.000000	0.000072	0.000014	0.000047	-0.077206	0.118454	-0.048865	-0.988747	4.630788	13.992002	171.638815	-0.960016	0.141098	-0.241786	-0.164251	-0.983303	0.078339	-0.226696	0.114920	0.967162
34197	28212524	-2.407012	0.830001	9.538781	0.011635	-0.055808	0.070727	0.066140	0.013012	0.037193				-0.006017	0.002073	0.023847	1.000000	0.000083	0.000016	0.000046	-0.077173	0.118456	-0.048952	-0.988745	4.641453	13.992816	171.643915	-0.960025	0.141012	-0.241800	-0.164207	-0.983296	0.078519	-0.226689	0.115085	0.967144
34198	28212549	-2.347772	0.823077	9.538795	-0.044155	-0.038896	0.055878	0.064728	0.017501	0.036491				-0.005869	0.002055	0.023847	1.000000	0.000081	0.000022	0.000046	-0.077141	0.118463	-0.049038	-0.988742	4.651905	13.994277	171.648966	-0.960031	0.140927	-0.241825	-0.164164	-0.983289	0.078695	-0.226694	0.115248	0.967123
34199	28212574	-2.382098	0.812272	9.486873	0.002128	-0.037531	0.013123	0.057714	0.020182	0.037500	-0.212364	-0.493406	-0.438254	-0.005955	0.002029	0.023717	1.000000	0.000072	0.000025	0.000047	-0.077106	0.118475	-0.049115	-0.988740	4.661396	13.996109	171.654197	-0.960037	0.140838	-0.241856	-0.164114	-0.983285	0.078854	-0.226708	0.115395	0.967103
34200	28212599	-2.386209	0.852128	9.506953	-0.004888	-0.073569	0.036693	0.055265	0.016174	0.032146				-0.005965	0.002128	0.023768	1.000000	0.000069	0.000020	0.000040	-0.077078	0.118482	-0.049189	-0.988737	4.670334	13.997430	171.658593	-0.960042	0.140764	-0.241878	-0.164076	-0.983279	0.079005	-0.226713	0.115534	0.967085
34201	28212624	-2.397225	0.838470	9.486946	0.012522	-0.062569	0.018939	0.053096	0.014375	0.034267				-0.005993	0.002094	0.023718	1.000000	0.000066	0.000018	0.000043	-0.077047	0.118487	-0.049260	-0.988736	4.679032	13.998469	171.663279	-0.960049	0.140684	-0.241896	-0.164031	-0.983275	0.079151	-0.226715	0.115667	0.967068
34202	28212649	-2.380614	0.839904	9.465675	0.001139	-0.062514	-0.005526	0.056793	0.016448	0.033604				-0.005951	0.002098	0.023664	1.000000	0.000071	0.000021	0.000042	-0.077017	0.118495	-0.049335	-0.988733	4.688242	13.999811	171.667894	-0.960055	0.140606	-0.241919	-0.163990	-0.983269	0.079306	-0.226720	0.115811	0.967050
34203	28212674	-2.315902	0.830198	9.478988	-0.062451	-0.041115	-0.009072	0.048438	0.012964	0.028519	-0.212813	-0.492431	-0.437250	-0.005789	0.002074	0.023698	1.000000	0.000061	0.000016	0.000036	-0.076992	0.118499	-0.049399	-0.988731	4.696064	14.000715	171.671718	-0.960060	0.140542	-0.241934	-0.163957	-0.983264	0.079438	-0.226721	0.115932	0.967035
34204	28212699	-2.329677	0.800029	9.448289	-0.037382	-0.015497	-0.037823	0.051849	0.019419	0.032622				-0.005824	0.001998	0.023621	1.000000	0.000065	0.000024	0.000041	-0.076963	0.118511	-0.049469	-0.988729	4.704540	14.002491	171.676224	-0.960064	0.140465	-0.241964	-0.163915	-0.983259	0.079580	-0.226735	0.116064	0.967016
34205	28212724	-2.360093	0.820505	9.504198	-0.024338	-0.032067	0.025236	0.049059	0.019801	0.032535				-0.005900	0.002050	0.023761	1.000000	0.000061	0.000025	0.000041	-0.076933	0.118523	-0.049535	-0.988726	4.712614	14.004322	171.680722	-0.960067	0.140389	-0.241995	-0.163873	-0.983255	0.079716	-0.226752	0.116189	0.966997
34206	28212749	-2.383529	0.810853	9.508140	-0.001200	-0.023978	0.033954	0.050303	0.018437	0.034617				-0.005958	0.002025	0.023771	1.000000	0.000063	0.000023	0.000043	-0.076900	0.118533	-0.049602	-0.988724	4.720937	14.005934	171.685510	-0.960072	0.140307	-0.242022	-0.163826	-0.983252	0.079856	-0.226765	0.116317	0.966979
34207	28212774	-2.384815	0.826085	9.482920	0.002879	-0.040580	0.011105	0.051753	0.024068	0.030355	-0.212825	-0.493878	-0.438252	-0.005961	0.002063	0.023708	1.000000	0.000065	0.000030	0.000038	-0.076873	0.118551	-0.049672	-0.988721	4.729333	14.008398	171.689740	-0.960072	0.140235	-0.242064	-0.163790	-0.983246	0.079997	-0.226790	0.116450	0.966957
34208	28212799	-2.406835	0.868674	9.497682	0.013760	-0.082543	0.034130	0.048320	0.019120	0.033720				-0.006017	0.002170	0.023744	1.000000	0.000060	0.000024	0.000042	-0.076842	0.118562	-0.049737	-0.988719	4.737342	14.010117	171.694405	-0.960077	0.140156	-0.242093	-0.163744	-0.983243	0.080131	-0.226806	0.116573	0.966938
34209	28212824	-2.390293	0.853571	9.484335	0.003299	-0.065639	0.016018	0.047110	0.018202	0.031514				-0.005975	0.002132	0.023711	1.000000	0.000059	0.000023	0.000039	-0.076813	0.118573	-0.049801	-0.988716	4.745098	14.011729	171.698735	-0.960081	0.140082	-0.242121	-0.163702	-0.983239	0.080262	-0.226819	0.116693	0.966921
34210	28212849	-2.383355	0.860533	9.465756	-0.000377	-0.072509	-0.003059	0.044231	0.017442	0.027350				-0.005958	0.002150	0.023665	1.000000	0.000055	0.000022	0.000034	-0.076789	0.118583	-0.049860	-0.988714	4.752290	14.013282	171.702443	-0.960083	0.140019	-0.242147	-0.163669	-0.983235	0.080382	-0.226832	0.116806	0.966904
34211	28212874	-2.408172	0.864639	9.475056	0.020538	-0.077785	0.012292	0.042339	0.015369	0.024197	-0.212833	-0.493397	-0.438248	-0.006020	0.002160	0.023688	1.000000	0.000053	0.000019	0.000030	-0.076768	0.118591	-0.049916	-0.988712	4.759093	14.014576	171.705661	-0.960086	0.139964	-0.242169	-0.163643	-0.983230	0.080497	-0.226841	0.116913	0.966889
34212	28212899	-2.388919	0.839850	9.476317	0.005813	-0.049469	0.006858	0.040826	0.017214	0.028579				-0.005972	0.002098	0.023691	1.000000	0.000051	0.000022	0.000036	-0.076742	0.118601	-0.049971	-0.988710	4.765841	14.016081	171.709548	-0.960089	0.139898	-0.242194	-0.163605	-0.983227	0.080610	-0.226855	0.117017	0.966873
34213	28212924	-2.376495	0.837115	9.465677	-0.003260	-0.045262	-0.006654	0.038199	0.014351	0.027491				-0.005941	0.002091	0.023664	1.000000	0.000048	0.000018	0.000034	-0.076717	0.118608	-0.050022	-0.988708	4.772165	14.017190	171.713239	-0.960093	0.139836	-0.242213	-0.163568	-0.983224	0.080716	-0.226863	0.117114	0.966860
34214	28212949	-2.376413	0.873020	9.445836	-0.004844	-0.081924	-0.022950	0.035414	0.016399	0.024645				-0.005941	0.002181	0.023615	1.000000	0.000044	0.000020	0.000031	-0.076695	0.118618	-0.050070	-0.988707	4.777996	14.018624	171.716537	-0.960095	0.139780	-0.242237	-0.163537	-0.983222	0.080814	-0.226877	0.117204	0.966845
34215	28212974	-2.370926	0.850940	9.451088	-0.007745	-0.057694	-0.020977	0.039153	0.013046	0.025116	-0.214696	-0.490952	-0.436719	-0.005927	0.002126	0.023628	1.000000	0.000049	0.000016	0.000031	-0.076673	0.118624	-0.050122	-0.988705	4.784368	14.019574	171.719863	-0.960099	0.139723	-0.242253	-0.163506	-0.983218	0.080922	-0.226881	0.117303	0.966832
34216	28212999	-2.377806	0.866079	9.453798	-0.004093	-0.072225	-0.015457	0.038788	0.011638	0.024110				-0.005944	0.002164	0.023635	1.000000	0.000048	0.000015	0.000030	-0.076653	0.118627	-0.050174	-0.988703	4.790649	14.020335	171.723024	-0.960104	0.139670	-0.242266	-0.163478	-0.983214	0.081027	-0.226882	0.117400	0.966820
34217	28213024	-2.379256	0.878284	9.493734	-0.014060	-0.078733	0.024502	0.036475	0.020093	0.022075				-0.005948	0.002194	0.023735	1.000000	0.000046	0.000025	0.000028	-0.076634	0.118642	-0.050223	-0.988701	4.796551	14.022326	171.725990	-0.960103	0.139619	-0.242300	-0.163453	-0.983210	0.081126	-0.226905	0.117494	0.966804
34218	28213049	-2.370975	0.857726	9.480372	-0.015686	-0.058118	0.007913	0.032522	0.015472	0.017905				-0.005927	0.002143	0.023701	1.000000	0.000041	0.000019	0.000022	-0.076620	0.118651	-0.050266	-0.988698	4.801724	14.023708	171.728286	-0.960103	0.139580	-0.242323	-0.163436	-0.983206	0.081213	-0.226918	0.117577	0.966790
34219	28213074	-2.388910	0.843994	9.478983	0.003989	-0.046327	0.009793	0.033097	0.013316	0.021614	-0.216581	-0.490436	-0.436691	-0.005972	0.002109	0.023698	1.000000	0.000041	0.000017	0.000027	-0.076601	0.118658	-0.050310	-0.988697	4.807106	14.024737	171.731101	-0.960105	0.139532	-0.242341	-0.163411	-0.983202	0.081303	-0.226926	0.117661	0.966779
34220	28213099	-2.395777	0.839891	9.468334	0.013715	-0.043696	0.000831	0.032125	0.013083	0.019033				-0.005989	0.002099	0.023671	1.000000	0.000040	0.000016	0.000024	-0.076586	0.118664	-0.050352	-0.988695	4.812256	14.025764	171.733534	-0.960107	0.139491	-0.242358	-0.163391	-0.983198	0.081390	-0.226933	0.117742	0.966767
34221	28213124	-2.388948	0.834361	9.474957	0.006595	-0.035665	0.005132	0.033464	0.010280	0.014149				-0.005972	0.002085	0.023688	1.000000	0.000042	0.000013	0.000018	-0.076577	0.118668	-0.050395	-0.988693	4.817415	14.026449	171.735213	-0.960108	0.139462	-0.242370	-0.163383	-0.983192	0.081477	-0.226933	0.117826	0.966757
34222	28213149	-2.364122	0.856384	9.477710	-0.021432	-0.052764	0.003576	0.030145	0.009511	0.017200				-0.005910	0.002140	0.023694	1.000000	0.000038	0.000012	0.000022	-0.076564	0.118670	-0.050435	-0.988692	4.822205	14.026988	171.737331	-0.960111	0.139426	-0.242379	-0.163367	-0.983189	0.081557	-0.226933	0.117901	0.966748
34223	28213174	-2.377802	0.870161	9.461784	-0.007112	-0.069347	-0.007372	0.026816	0.012332	0.019056	-0.215095	-0.492859	-0.435741	-0.005944	0.002174	0.023655	1.000000	0.000034	0.000015	0.000024	-0.076548	0.118676	-0.050471	-0.988691	4.826593	14.027907	171.739758	-0.960113	0.139385	-0.242394	-0.163344	-0.983186	0.081631	-0.226941	0.117969	0.966737
34224	28213199	-2.383351	0.870151	9.468424	-0.003310	-0.068608	0.000396	0.028886	0.013605	0.011660				-0.005958	0.002174	0.023671	1.000000	0.000036	0.000017	0.000015	-0.076541	0.118684	-0.050508	-0.988688	4.831018	14.029096	171.741112	-0.960111	0.139362	-0.242415	-0.163340	-0.983181	0.081705	-0.226951	0.118042	0.966726
34225	28213224	-2.390277	0.856434	9.465727	0.006232	-0.055752	-0.001650	0.025621	0.009938	0.015782				-0.005975	0.002140	0.023664	1.000000	0.000032	0.000012	0.000020	-0.076529	0.118687	-0.050542	-0.988687	4.835111	14.029712	171.743028	-0.960113	0.139329	-0.242425	-0.163324	-0.983178	0.081774	-0.226953	0.118106	0.966718
34226	28213249	-2.383429	0.830231	9.473618	0.002069	-0.027516	0.002177	0.022677	0.011387	0.015193				-0.005958	0.002075	0.023684	1.000000	0.000028	0.000014	0.000019	-0.076517	0.118693	-0.050572	-0.988686	4.838766	14.030542	171.744874	-0.960114	0.139298	-0.242439	-0.163308	-0.983175	0.081836	-0.226961	0.118164	0.966709
34227	28213274	-2.375115	0.827557	9.454993	-0.001309	-0.025303	-0.018064	0.021844	0.009143	0.017387	-0.213718	-0.494335	-0.437256	-0.005938	0.002068	0.023638	1.000000	0.000027	0.000011	0.000022	-0.076502	0.118696	-0.050601	-0.988685	4.842373	14.031025	171.747016	-0.960117	0.139261	-0.242447	-0.163286	-0.983174	0.081896	-0.226963	0.118218	0.966702
34228	28213299	-2.388993	0.826057	9.484236	0.005517	-0.021865	0.013448	0.020282	0.013337	0.006066				-0.005972	0.002064	0.023711	1.000000	0.000025	0.000017	0.000008	-0.076501	0.118704	-0.050627	-0.988683	4.845365	14.032244	171.747545	-0.960114	0.139252	-0.242468	-0.163290	-0.983169	0.081946	-0.226976	0.118270	0.966692
34229	28213324	-2.386242	0.831488	9.505549	-0.002884	-0.023539	0.033831	0.025131	0.012329	0.014709				-0.005965	0.002078	0.023764	1.000000	0.000031	0.000015	0.000018	-0.076490	0.118711	-0.050660	-0.988681	4.849357	14.033214	171.749332	-0.960114	0.139221	-0.242484	-0.163277	-0.983166	0.082013	-0.226984	0.118334	0.966683
34230	28213349	-2.391762	0.817762	9.496186	0.006755	-0.011333	0.024993	0.022131	0.011042	0.017196				-0.005979	0.002044	0.023741	1.000000	0.000028	0.000014	0.000021	-0.076476	0.118716	-0.050690	-0.988680	4.853004	14.033970	171.751470	-0.960116	0.139185	-0.242497	-0.163256	-0.983164	0.082075	-0.226991	0.118390	0.966674
34231	28213374	-2.379340	0.827368	9.501560	-0.008131	-0.017761	0.027968	0.023156	0.011596	0.012307	-0.212806	-0.493875	-0.437758	-0.005948	0.002068	0.023754	1.000000	0.000029	0.000014	0.000015	-0.076468	0.118722	-0.050720	-0.988679	4.856625	14.034864	171.752895	-0.960116	0.139161	-0.242512	-0.163247	-0.983160	0.082135	-0.226998	0.118449	0.966665
34232	28213399	-2.390347	0.834322	9.488259	0.004586	-0.027373	0.018352	0.016709	0.004750	0.015527				-0.005976	0.002085	0.023721	1.000000	0.000021	0.000006	0.000019	-0.076455	0.118720	-0.050742	-0.988679	4.859417	14.034742	171.754708	-0.960121	0.139130	-0.242510	-0.163227	-0.983160	0.082182	-0.226992	0.118489	0.966662
34233	28213424	-2.395800	0.857709	9.481688	0.007497	-0.051421	0.015248	0.017539	0.006998	0.013460				-0.005989	0.002144	0.023704	1.000000	0.000022	0.000009	0.000017	-0.076445	0.118720	-0.050765	-0.988678	4.862261	14.034966	171.756246	-0.960123	0.139104	-0.242514	-0.163212	-0.983158	0.082230	-0.226991	0.118532	0.966657
34234	28213104																																			
34235	28213104																																			
34236	28213449	-2.406860	0.837097	9.474958	0.022934	-0.032894	0.009731	0.020711	0.010210	0.012727				-0.006017	0.002092	0.023688	1.000000	0.000026	0.000013	0.000016	-0.076436	0.118725	-0.050793	-0.988677	4.865543	14.035657	171.757715	-0.960124	0.139079	-0.242526	-0.163201	-0.983155	0.082285	-0.226996	0.118585	0.966649
34237	28213474	-2.383354	0.855068	9.460409	0.000717	-0.047577	-0.008409	0.022814	0.009447	0.012620	-0.214220	-0.492404	-0.437232	-0.005958	0.002137	0.023651	1.000000	0.000029	0.000012	0.000016	-0.076477	0.118725	-0.050849	-0.988671	4.871554	14.036409	171.753667	-0.960111	0.139147	-0.242538	-0.163295	-0.983131	0.082387	-0.226983	0.118706	0.966637
34238	28213499	-2.369572	0.830352	9.444375	-0.004895	-0.022947	-0.029287	0.017077	0.011764	0.006419				-0.005924	0.002075	0.023611	1.000000	0.000021	0.000015	0.000008	-0.076475	0.118733	-0.050871	-0.988669	4.874095	14.037399	171.754229	-0.960108	0.139137	-0.242555	-0.163297	-0.983127	0.082429	-0.226994	0.118749	0.966629
34239	28213524	-2.380646	0.835770	9.468323	-0.000486	-0.026420	-0.003004	0.020047	0.007008	0.010340				-0.005951	0.002089	0.023671	1.000000	0.000025	0.000009	0.000013	-0.076469	0.118733	-0.050897	-0.988668	4.877187	14.037662	171.755307	-0.960110	0.139118	-0.242560	-0.163291	-0.983124	0.082481	-0.226992	0.118799	0.966624
34240	28213549	-2.364113	0.859113	9.479046	-0.022583	-0.045165	0.005280	0.023636	0.007483	0.008486				-0.005910	0.002147	0.023698	1.000000	0.000030	0.000009	0.000011	-0.076466	0.118734	-0.050927	-0.988667	4.880729	14.038015	171.756119	-0.960110	0.139105	-0.242566	-0.163292	-0.983119	0.082541	-0.226989	0.118857	0.966617
34241	28213574	-2.380647	0.864607	9.480385	-0.008147	-0.052356	0.011042	0.015277	0.011048	0.009108	-0.215114	-0.492862	-0.436236	-0.005951	0.002161	0.023701	1.000000	0.000019	0.000014	0.000011	-0.076460	0.118741	-0.050947	-0.988665	4.883106	14.038869	171.757067	-0.960109	0.139088	-0.242580	-0.163286	-0.983117	0.082581	-0.226998	0.118896	0.966610
34242	28213599	-2.394495	0.853562	9.494971	0.003546	-0.041376	0.027589	0.013392	0.013638	0.008461				-0.005986	0.002133	0.023738	1.000000	0.000017	0.000017	0.000011	-0.076455	0.118750	-0.050965	-0.988664	4.885198	14.040101	171.757953	-0.960106	0.139073	-0.242601	-0.163281	-0.983114	0.082615	-0.227015	0.118932	0.966602
34243	28213624	-2.412412	0.832872	9.500219	0.022863	-0.022583	0.035300	0.014077	0.010420	0.001310				-0.006031	0.002082	0.023751	1.000000	0.000018	0.000013	0.000002	-0.076459	0.118756	-0.050982	-0.988662	4.887123	14.040961	171.757746	-0.960102	0.139076	-0.242616	-0.163293	-0.983110	0.082648	-0.227023	0.118968	0.966596
34244	28213649	-2.353100	0.834389	9.469652	-0.027482	-0.019042	-0.008511	0.015682	0.010784	0.004277				-0.005882	0.002085	0.023674	1.000000	0.000020	0.000013	0.000005	-0.076460	0.118762	-0.051002	-0.988660	4.889385	14.041836	171.757980	-0.960099	0.139071	-0.242630	-0.163299	-0.983105	0.082685	-0.227032	0.119008	0.966589
34245	28213674	-2.317216	0.789076	9.428310	-0.045328	0.025882	-0.060942	0.012276	0.010240	0.005507	-0.214241	-0.493371	-0.438230	-0.005793	0.001972	0.023571	1.000000	0.000015	0.000013	0.000007	-0.076458	0.118768	-0.051017	-0.988658	4.891201	14.042619	171.758389	-0.960097	0.139064	-0.242644	-0.163301	-0.983103	0.082716	-0.227041	0.119039	0.966583
34246	28213699	-2.368340	0.798506	9.488153	-0.011286	0.017178	0.010086	0.018924	0.009742	0.010896				-0.005921	0.001996	0.023721	1.000000	0.000024	0.000012	0.000014	-0.076451	0.118772	-0.051042	-0.988657	4.894161	14.043265	171.759584	-0.960097	0.139043	-0.242655	-0.163293	-0.983100	0.082766	-0.227046	0.119087	0.966576
34247	28213724	-2.435959	0.825867	9.537424	0.037839	-0.012874	0.076384	0.015952	0.011648	0.007163				-0.006090	0.002064	0.023844	1.000000	0.000020	0.000015	0.000009	-0.076448	0.118779	-0.051063	-0.988656	4.896567	14.044229	171.760253	-0.960094	0.139032	-0.242671	-0.163292	-0.983097	0.082806	-0.227056	0.119128	0.966568
34248	28213749	-2.420698	0.837005	9.508197	0.027969	-0.024690	0.045354	0.017765	0.010221	0.009125				-0.006051	0.002092	0.023771	1.000000	0.000022	0.000013	0.000011	-0.076443	0.118784	-0.051086	-0.988654	4.899299	14.044965	171.761194	-0.960094	0.139015	-0.242683	-0.163288	-0.983093	0.082852	-0.227063	0.119173	0.966561
34249	28213774	-2.368234	0.834355	9.469654	-0.013294	-0.019126	-0.004849	0.010861	0.007492	0.012089	-0.214251	-0.493854	-0.438729	-0.005920	0.002085	0.023674	1.000000	0.000014	0.000009	0.000015	-0.076434	0.118786	-0.051100	-0.988654	4.901139	14.045275	171.762536	-0.960095	0.138993	-0.242689	-0.163273	-0.983093	0.082883	-0.227065	0.119200	0.966557
34250	28213799	-2.401396	0.815023	9.489522	0.017315	-0.001908	0.020799	0.015573	0.007458	0.014322				-0.006003	0.002037	0.023724	1.000000	0.000019	0.000009	0.000018	-0.076422	0.118788	-0.051121	-0.988654	4.903734	14.045553	171.764206	-0.960098	0.138965	-0.242693	-0.163255	-0.983093	0.082926	-0.227066	0.119238	0.966552
34251	28213824	-2.442770	0.820486	9.501489	0.053439	-0.011158	0.042861	0.016564	0.007339	0.011064				-0.006107	0.002051	0.023754	1.000000	0.000021	0.000009	0.000014	-0.076415	0.118789	-0.051143	-0.988653	4.906355	14.045853	171.765396	-0.960100	0.138944	-0.242698	-0.163245	-0.983090	0.082970	-0.227066	0.119279	0.966547
34252	28213849	-2.411088	0.835571	9.514856	0.017523	-0.019660	0.049344	0.012721	0.007524	0.014235				-0.006028	0.002088	0.023787	1.000000	0.000016	0.000009	0.000018	-0.076403	0.118791	-0.051160	-0.988653	4.908538	14.046142	171.767054	-0.960103	0.138917	-0.242703	-0.163226	-0.983091	0.083007	-0.227068	0.119311	0.966543
34253	28213874	-2.364109	0.849472	9.473707	-0.020510	-0.031194	-0.000667	0.017415	0.005306	0.010511	-0.215089	-0.494303	-0.436249	-0.005910	0.002123	0.023684	1.000000	0.000022	0.000007	0.000013	-0.076396	0.118790	-0.051182	-0.988652	4.911254	14.046159	171.768136	-0.960105	0.138898	-0.242704	-0.163218	-0.983088	0.083053	-0.227063	0.119353	0.966539
34254	28213899	-2.346186	0.842637	9.464371	-0.034437	-0.022709	-0.014607	0.017029	0.008188	0.008497				-0.005865	0.002106	0.023661	1.000000	0.000021	0.000010	0.000011	-0.076392	0.118792	-0.051204	-0.988651	4.913852	14.046612	171.768959	-0.960105	0.138884	-0.242711	-0.163215	-0.983085	0.083097	-0.227065	0.119395	0.966533
34255	28213924	-2.370988	0.861836	9.487035	-0.019030	-0.042010	0.014914	0.012936	0.010732	0.008902				-0.005927	0.002154	0.023718	1.000000	0.000016	0.000013	0.000011	-0.076386	0.118798	-0.051221	-0.988650	4.915886	14.047423	171.769873	-0.960104	0.138868	-0.242725	-0.163208	-0.983083	0.083131	-0.227075	0.119429	0.966527
34256	28213949	-2.376514	0.867350	9.481737	-0.013443	-0.048377	0.011596	0.016373	0.009184	0.007424				-0.005941	0.002168	0.023704	1.000000	0.000020	0.000011	0.000009	-0.076383	0.118802	-0.051242	-0.988649	4.918355	14.048032	171.770551	-0.960103	0.138857	-0.242735	-0.163207	-0.983080	0.083172	-0.227079	0.119470	0.966521
34257	28213974	-2.394448	0.863232	9.483032	0.004010	-0.046267	0.016862	0.015162	0.008978	0.006220	-0.213618	-0.494802	-0.434787	-0.005986	0.002158	0.023708	1.000000	0.000019	0.000011	0.000008	-0.076381	0.118806	-0.051261	-0.988647	4.920606	14.048626	171.771048	-0.960102	0.138848	-0.242745	-0.163209	-0.983076	0.083210	-0.227084	0.119508	0.966515
34258	28213999	-2.402723	0.848050	9.492298	0.012387	-0.031100	0.026563	0.013889	0.008450	0.004889				-0.006007	0.002120	0.023731	1.000000	0.000017	0.000011	0.000006	-0.076381	0.118809	-0.051279	-0.988646	4.922626	14.049160	171.771343	-0.960101	0.138843	-0.242754	-0.163212	-0.983073	0.083244	-0.227087	0.119543	0.966510
34259	28214024	-2.398640	0.832899	9.500226	0.009019	-0.014367	0.031974	0.012721	0.010554	0.005695				-0.005996	0.002082	0.023751	1.000000	0.000016	0.000013	0.000007	-0.076379	0.118815	-0.051295	-0.988644	4.924514	14.049986	171.771784	-0.960098	0.138835	-0.242768	-0.163214	-0.983070	0.083275	-0.227097	0.119575	0.966503
34260	28214049	-2.430370	0.819089	9.509479	0.039843	-0.003680	0.047469	0.015169	0.003079	0.009863				-0.006076	0.002047	0.023774	1.000000	0.000019	0.000004	0.000012	-0.076374	0.118812	-0.051314	-0.988644	4.926879	14.049693	171.772743	-0.960102	0.138819	-0.242763	-0.163206	-0.983068	0.083315	-0.227087	0.119611	0.966501
34261	28214074	-2.428881	0.853568	9.492307	0.036593	-0.038925	0.033363	0.017264	0.006169	0.009122	-0.214140	-0.493838	-0.435762	-0.006072	0.002133	0.023731	1.000000	0.000022	0.000008	0.000011	-0.076369	0.118812	-0.051336	-0.988644	4.929526	14.049850	171.773633	-0.960103	0.138804	-0.242766	-0.163201	-0.983065	0.083360	-0.227084	0.119654	0.966497
34262	28214099	-2.423429	0.832909	9.496225	0.033958	-0.017082	0.034104	0.015587	0.005989	0.005658				-0.006058	0.002082	0.023741	1.000000	0.000019	0.000007	0.000007	-0.076368	0.118812	-0.051356	-0.988643	4.931809	14.050024	171.774010	-0.960103	0.138798	-0.242769	-0.163204	-0.983061	0.083398	-0.227081	0.119692	0.966493
34263	28214124	-2.395779	0.857760	9.473716	0.008643	-0.040080	0.007710	0.013760	0.001562	0.005713				-0.005989	0.002144	0.023684	1.000000	0.000017	0.000002	0.000007	-0.076367	0.118807	-0.051373	-0.988642	4.933819	14.049565	171.774339	-0.960106	0.138792	-0.242761	-0.163206	-0.983058	0.083432	-0.227069	0.119724	0.966492
34264	28214149	-2.387525	0.848142	9.475011	0.002156	-0.028986	0.006157	0.012933	0.001152	0.011730				-0.005969	0.002120	0.023688	1.000000	0.000016	0.000001	0.000015	-0.076359	0.118801	-0.051389	-0.988643	4.935924	14.048974	171.775548	-0.960111	0.138772	-0.242751	-0.163193	-0.983057	0.083468	-0.227055	0.119754	0.966491
34265	28214174	-2.386142	0.846776	9.471020	0.002055	-0.027541	0.001852	0.013839	0.000139	0.011928	-0.214159	-0.493840	-0.436256	-0.005965	0.002116	0.023678	1.000000	0.000017	0.000000	0.000015	-0.076350	0.118794	-0.051407	-0.988644	4.938163	14.048236	171.776773	-0.960118	0.138752	-0.242739	-0.163180	-0.983056	0.083506	-0.227039	0.119786	0.966491
34266	28214199	-2.377881	0.838536	9.457691	-0.001254	-0.019751	-0.013723	0.009696	-0.000018	0.009637				-0.005945	0.002096	0.023644	1.000000	0.000012	-0.000000	0.000012	-0.076344	0.118787	-0.051419	-0.988644	4.939726	14.047504	171.777659	-0.960123	0.138738	-0.242726	-0.163169	-0.983055	0.083533	-0.227024	0.119807	0.966492
34267	28214224	-2.347578	0.804143	9.460254	-0.025270	0.018915	-0.021475	0.011438	0.003700	0.012533				-0.005869	0.002010	0.023651	1.000000	0.000014	0.000005	0.000016	-0.076334	0.118784	-0.051434	-0.988645	4.941653	14.047267	171.779019	-0.960127	0.138715	-0.242722	-0.163153	-0.983055	0.083565	-0.227018	0.119834	0.966490
34268	28214249	-2.343471	0.830216	9.473655	-0.036381	-0.004197	-0.007340	0.012715	0.002611	0.011794				-0.005859	0.002075	0.023684	1.000000	0.000016	0.000003	0.000015	-0.076325	0.118780	-0.051450	-0.988645	4.943733	14.046883	171.780256	-0.960132	0.138695	-0.242716	-0.163140	-0.983055	0.083600	-0.227008	0.119864	0.966488
34269	28214274	-2.384887	0.802654	9.486827	0.005070	0.018975	0.013122	0.010628	-0.002360	0.009774	-0.213698	-0.493369	-0.436258	-0.005962	0.002006	0.023717	1.000000	0.000013	-0.000003	0.000012	-0.076319	0.118770	-0.051463	-0.988646	4.945427	14.045814	171.781133	-0.960138	0.138681	-0.242698	-0.163130	-0.983054	0.083629	-0.226987	0.119887	0.966491
34270	28214299	-2.372329	0.846777	9.459057	-0.007641	-0.025664	-0.013073	0.012761	0.000466	0.012484				-0.005931	0.002116	0.023648	1.000000	0.000016	0.000001	0.000016	-0.076310	0.118763	-0.051480	-0.988647	4.947532	14.045116	171.782444	-0.960144	0.138659	-0.242686	-0.163115	-0.983053	0.083665	-0.226972	0.119916	0.966490
34271	28214324	-2.410936	0.860487	9.477706	0.023080	-0.041975	0.015468	0.011656	0.001454	0.010902				-0.006027	0.002151	0.023694	1.000000	0.000015	0.000002	0.000014	-0.076302	0.118757	-0.051495	-0.988647	4.949425	14.044578	171.783534	-0.960149	0.138641	-0.242677	-0.163103	-0.983053	0.083697	-0.226960	0.119943	0.966490
34272	28214349	-2.394362	0.878431	9.465789	0.007153	-0.058287	0.001433	0.017725	-0.000341	0.005995				-0.005986	0.002196	0.023665	1.000000	0.000022	-0.000000	0.000007	-0.076302	0.118750	-0.051516	-0.988647	4.952007	14.043844	171.783881	-0.960153	0.138636	-0.242664	-0.163106	-0.983048	0.083741	-0.226941	0.119984	0.966489
34273	28214374	-2.359861	0.888085	9.455208	-0.025123	-0.064203	-0.016354	0.006822	0.000131	0.006789	-0.214165	-0.492396	-0.435749	-0.005900	0.002220	0.023638	1.000000	0.000009	0.000000	0.000008	-0.076299	0.118743	-0.051524	-0.988647	4.953057	14.043168	171.784349	-0.960157	0.138628	-0.242653	-0.163101	-0.983048	0.083759	-0.226928	0.119999	0.966491
34274	28214399	-2.337942	0.828867	9.463005	-0.038150	-0.001813	-0.019097	0.008543	0.003503	0.007810				-0.005845	0.002072	0.023658	1.000000	0.000011	0.000004	0.000010	-0.076294	0.118741	-0.051535	-0.988648	4.954400	14.042961	171.785012	-0.960160	0.138618	-0.242649	-0.163095	-0.983047	0.083782	-0.226922	0.120019	0.966489
34275	28214424	-2.350298	0.853628	9.469739	-0.031662	-0.026879	-0.007515	0.007486	0.000250	0.010373				-0.005876	0.002134	0.023674	1.000000	0.000009	0.000000	0.000013	-0.076287	0.118734	-0.051545	-0.988648	4.955673	14.042258	171.786009	-0.960165	0.138601	-0.242637	-0.163082	-0.983047	0.083804	-0.226909	0.120035	0.966491
34276	28214449	-2.369641	0.832975	9.474974	-0.010870	-0.008400	0.000508	0.007816	0.003429	0.011189				-0.005924	0.002082	0.023687	1.000000	0.000010	0.000004	0.000014	-0.076278	0.118732	-0.051555	-0.988649	4.957033	14.041998	171.787167	-0.960169	0.138582	-0.242633	-0.163067	-0.983047	0.083827	-0.226903	0.120053	0.966490
34277	28214474	-2.387561	0.842605	9.481638	0.003128	-0.019348	0.012085	0.006367	0.006069	0.009921	-0.215095	-0.492859	-0.435741	-0.005969	0.002106	0.023704	1.000000	0.000008	0.000008	0.000012	-0.076271	0.118733	-0.051564	-0.988649	4.958148	14.042130	171.788173	-0.960171	0.138565	-0.242635	-0.163054	-0.983048	0.083845	-0.226904	0.120069	0.966487
34278	28214499	-2.359930	0.856420	9.465752	-0.021877	-0.030861	-0.008814	0.006840	0.004169	0.009800				-0.005900	0.002141	0.023664	1.000000	0.000009	0.000005	0.000012	-0.076263	0.118731	-0.051573	-0.988649	4.959320	14.041993	171.789137	-0.960174	0.138549	-0.242633	-0.163042	-0.983048	0.083865	-0.226900	0.120085	0.966486
34279	28214524	-2.364013	0.882587	9.452527	-0.019228	-0.058537	-0.018409	0.007002	0.005747	0.009486				-0.005910	0.002206	0.023631	1.000000	0.000009	0.000007	0.000012	-0.076257	0.118731	-0.051582	-0.988649	4.960509	14.042085	171.790074	-0.960176	0.138533	-0.242635	-0.163031	-0.983048	0.083885	-0.226901	0.120101	0.966484
34280	28214549	-2.355775	0.860542	9.459110	-0.025005	-0.034896	-0.015895	0.003697	0.004230	0.005442				-0.005889	0.002151	0.023648	1.000000	0.000005	0.000005	0.000007	-0.076254	0.118731	-0.051587	-0.988649	4.961076	14.042011	171.790397	-0.960177	0.138528	-0.242633	-0.163028	-0.983048	0.083895	-0.226898	0.120110	0.966484
34281	28214574	-2.353045	0.860512	9.472419	-0.030756	-0.032706	-0.003694	0.005071	0.005758	0.005956	-0.213636	-0.494805	-0.435282	-0.005882	0.002151	0.023681	1.000000	0.000006	0.000007	0.000007	-0.076252	0.118731	-0.051593	-0.988649	4.961863	14.042148	171.790815	-0.960177	0.138521	-0.242636	-0.163024	-0.983048	0.083908	-0.226899	0.120122	0.966482
34282	28214599	-2.358595	0.856386	9.475051	-0.025289	-0.028704	-0.000149	0.013097	0.007987	0.007398				-0.005896	0.002141	0.023688	1.000000	0.000016	0.000010	0.000009	-0.076248	0.118734	-0.051610	-0.988648	4.963858	14.042586	171.791474	-0.960177	0.138509	-0.242643	-0.163021	-0.983045	0.083942	-0.226902	0.120155	0.966477
34283	28214624	-2.366948	0.826025	9.488252	-0.015347	0.001789	0.012087	0.011036	0.007208	0.002232				-0.005917	0.002065	0.023721	1.000000	0.000014	0.000009	0.000003	-0.076251	0.118737	-0.051623	-0.988647	4.965370	14.042976	171.791363	-0.960175	0.138511	-0.242650	-0.163029	-0.983042	0.083967	-0.226904	0.120182	0.966473
34284	28214649	-2.388926	0.849451	9.485659	0.002408	-0.024502	0.016882	0.005323	0.009163	0.005136				-0.005972	0.002123	0.023714	1.000000	0.000007	0.000011	0.000006	-0.076249	0.118742	-0.051630	-0.988646	4.966174	14.043609	171.791704	-0.960173	0.138505	-0.242660	-0.163028	-0.983041	0.083980	-0.226913	0.120196	0.966469
34285	28214674	-2.373773	0.855005	9.477691	-0.011421	-0.028535	0.005970	0.009285	0.009219	0.001274	-0.213206	-0.495782	-0.436780	-0.005934	0.002137	0.023694	1.000000	0.000012	0.000012	0.000002	-0.076252	0.118747	-0.051642	-0.988645	4.967408	14.044298	171.791478	-0.960170	0.138508	-0.242672	-0.163037	-0.983037	0.084001	-0.226921	0.120220	0.966465
34286	28214699	-2.405477	0.853572	9.493635	0.015673	-0.029510	0.028952	0.006281	0.008449	0.004202				-0.006013	0.002134	0.023734	1.000000	0.000008	0.000011	0.000005	-0.076252	0.118751	-0.051649	-0.988644	4.968314	14.044841	171.791672	-0.960168	0.138505	-0.242681	-0.163038	-0.983036	0.084016	-0.226928	0.120236	0.966461
34287	28214724	-2.398604	0.850793	9.492305	0.009788	-0.025760	0.025766	0.007513	0.008108	0.006786				-0.005996	0.002127	0.023731	1.000000	0.000009	0.000010	0.000008	-0.076248	0.118754	-0.051659	-0.988643	4.969488	14.045303	171.792243	-0.960167	0.138495	-0.242689	-0.163034	-0.983035	0.084035	-0.226933	0.120255	0.966457
34288	28214749	-2.390330	0.852189	9.493646	0.001291	-0.025694	0.025172	0.006613	0.006655	0.002825				-0.005976	0.002130	0.023734	1.000000	0.000008	0.000008	0.000004	-0.076249	0.118756	-0.051667	-0.988642	4.970386	14.045607	171.792212	-0.960166	0.138495	-0.242694	-0.163038	-0.983033	0.084051	-0.226936	0.120271	0.966455
34289	28214774	-2.376545	0.843931	9.488311	-0.009518	-0.016112	0.015978	0.006680	0.006922	0.003642	-0.212755	-0.495794	-0.437281	-0.005941	0.002110	0.023721	1.000000	0.000008	0.000009	0.000005	-0.076250	0.118759	-0.051675	-0.988642	4.971325	14.045939	171.792305	-0.960165	0.138493	-0.242700	-0.163041	-0.983031	0.084066	-0.226939	0.120287	0.966452
34290	28214799	-2.375245	0.835597	9.509559	-0.014058	-0.004995	0.035498	0.009373	0.004239	0.002284				-0.005938	0.002089	0.023774	1.000000	0.000012	0.000005	0.000003	-0.076252	0.118757	-0.051686	-0.988641	4.972592	14.045905	171.792163	-0.960165	0.138496	-0.242699	-0.163048	-0.983028	0.084088	-0.226934	0.120310	0.966450
34291	28214824	-2.369643	0.841226	9.480320	-0.013747	-0.013097	0.006353	0.006975	0.006215	0.007038				-0.005924	0.002103	0.023701	1.000000	0.000009	0.000008	0.000009	-0.076248	0.118759	-0.051695	-0.988641	4.973691	14.046094	171.792746	-0.960165	0.138486	-0.242702	-0.163043	-0.983028	0.084106	-0.226936	0.120327	0.966448
34292	28214849	-2.397216	0.861788	9.500323	0.004802	-0.034466	0.034108	0.010028	0.006764	0.001973				-0.005993	0.002154	0.023751	1.000000	0.000013	0.000008	0.000002	-0.076251	0.118760	-0.051707	-0.988639	4.975049	14.046424	171.792592	-0.960163	0.138488	-0.242708	-0.163052	-0.983024	0.084129	-0.226937	0.120351	0.966445
34293	28214874	-2.395809	0.870072	9.487051	0.004842	-0.043781	0.021657	0.008377	0.010757	0.002272	-0.214644	-0.492871	-0.436242	-0.005989	0.002175	0.023718	1.000000	0.000010	0.000013	0.000003	-0.076253	0.118767	-0.051718	-0.988638	4.976194	14.047321	171.792532	-0.960160	0.138489	-0.242723	-0.163058	-0.983021	0.084148	-0.226949	0.120373	0.966439
34294	28214899	-2.398580	0.864580	9.488355	0.008373	-0.038717	0.023127	0.002378	0.001633	0.001350				-0.005996	0.002161	0.023721	1.000000	0.000003	0.000002	0.000002	-0.076256	0.118764	-0.051720	-0.988638	4.976418	14.046927	171.792219	-0.960160	0.138494	-0.242717	-0.163064	-0.983020	0.084152	-0.226941	0.120378	0.966440
34295	28214924	-2.393094	0.856320	9.493650	0.003130	-0.029009	0.026219	0.006260	0.007379	0.000371				-0.005983	0.002141	0.023734	1.000000	0.000008	0.000009	0.000000	-0.076260	0.118767	-0.051727	-0.988637	4.977180	14.047364	171.791837	-0.960158	0.138500	-0.242724	-0.163074	-0.983017	0.084164	-0.226945	0.120393	0.966437
34296	28214949	-2.409576	0.850878	9.475010	0.024115	-0.028123	0.011747	0.004542	0.004475	0.001113				-0.006024	0.002127	0.023688	1.000000	0.000006	0.000006	0.000001	-0.076263	0.118766	-0.051732	-0.988637	4.977715	14.047379	171.791526	-0.960157	0.138506	-0.242724	-0.163082	-0.983015	0.084173	-0.226943	0.120404	0.966437
34297	28214974	-2.431650	0.868720	9.496334	0.037552	-0.045964	0.039217	0.006174	0.002925	0.003453	-0.216044	-0.493324	-0.436228	-0.006079	0.002172	0.023741	1.000000	0.000008	0.000004	0.000004	-0.076264	0.118764	-0.051739	-0.988636	4.978561	14.047143	171.791540	-0.960158	0.138506	-0.242720	-0.163085	-0.983014	0.084188	-0.226937	0.120418	0.966436
34298	28214999	-2.433137	0.831466	9.516169	0.040587	-0.006981	0.055611	0.008757	0.006421	0.000580				-0.006083	0.002078	0.023790	1.000000	0.000011	0.000008	0.000001	-0.076269	0.118765	-0.051750	-0.988635	4.979686	14.047441	171.791176	-0.960156	0.138512	-0.242725	-0.163096	-0.983010	0.084207	-0.226938	0.120439	0.966433
34299	28215024	-2.411061	0.832848	9.508203	0.021057	-0.005922	0.042670	0.013402	0.003782	-0.002018				-0.006028	0.002082	0.023771	1.000000	0.000017	0.000005	-0.000003	-0.076277	0.118764	-0.051765	-0.988634	4.981375	14.047395	171.790396	-0.960154	0.138525	-0.242724	-0.163116	-0.983004	0.084235	-0.226931	0.120471	0.966431
34300	28215049	-2.417959	0.830108	9.510851	0.027529	-0.003721	0.046673	0.009035	0.004640	-0.000045				-0.006045	0.002075	0.023777	1.000000	0.000011	0.000006	-0.000000	-0.076282	0.118763	-0.051775	-0.988633	4.982512	14.047448	171.789917	-0.960153	0.138533	-0.242725	-0.163129	-0.983001	0.084254	-0.226927	0.120493	0.966429
34301	28215074	-2.431746	0.842450	9.516201	0.037453	-0.016704	0.056216	0.014773	0.005493	-0.001758	-0.216019	-0.494765	-0.436241	-0.006079	0.002106	0.023791	1.000000	0.000018	0.000007	-0.000002	-0.076291	0.118763	-0.051792	-0.988632	4.984412	14.047643	171.789197	-0.960150	0.138545	-0.242729	-0.163149	-0.982995	0.084286	-0.226924	0.120528	0.966426
34302	28215099	-2.419317	0.846632	9.506909	0.027129	-0.020103	0.044571	0.010386	0.002977	-0.000973				-0.006048	0.002116	0.023767	1.000000	0.000013	0.000004	-0.000001	-0.076297	0.118761	-0.051804	-0.988631	4.985704	14.047469	171.788561	-0.960149	0.138555	-0.242726	-0.163164	-0.982990	0.084308	-0.226916	0.120553	0.966425
34303	28215124	-2.401369	0.819193	9.481554	0.020268	0.006651	0.013397	0.013362	0.001796	0.004452				-0.006003	0.002048	0.023704	1.000000	0.000017	0.000002	0.000006	-0.076298	0.118756	-0.051820	-0.988631	4.987613	14.047060	171.788707	-0.960151	0.138553	-0.242719	-0.163169	-0.982987	0.084341	-0.226904	0.120584	0.966423
34304	28215149	-2.368198	0.830315	9.444380	-0.004929	-0.004196	-0.029642	0.004449	0.002530	0.001995				-0.005920	0.002076	0.023611	1.000000	0.000006	0.000003	0.000002	-0.076300	0.118753	-0.051825	-0.988630	4.988159	14.046785	171.788501	-0.960152	0.138557	-0.242714	-0.163174	-0.982985	0.084350	-0.226897	0.120593	0.966424
34305	28215174	-2.369530	0.855191	9.431144	-0.004589	-0.030097	-0.040009	0.011224	-0.000775	0.001994	-0.213620	-0.495765	-0.435291	-0.005924	0.002138	0.023578	1.000000	0.000014	-0.000001	0.000002	-0.076304	0.118745	-0.051838	-0.988630	4.989665	14.046040	171.788253	-0.960155	0.138561	-0.242701	-0.163183	-0.982981	0.084376	-0.226880	0.120618	0.966425
34306	28215199	-2.328140	0.863365	9.436530	-0.046639	-0.031533	-0.044157	0.012721	-0.000572	-0.001141				-0.005820	0.002158	0.023591	1.000000	0.000016	-0.000001	-0.000001	-0.076311	0.118738	-0.051852	-0.988630	4.991275	14.045362	171.787546	-0.960156	0.138574	-0.242690	-0.163201	-0.982976	0.084403	-0.226862	0.120647	0.966425
34307	28215224	-2.304757	0.859261	9.436525	-0.068416	-0.024015	-0.050182	0.012755	0.003111	-0.004591				-0.005762	0.002148	0.023591	1.000000	0.000016	0.000004	-0.000006	-0.076323	0.118736	-0.051866	-0.988629	4.992778	14.045253	171.786378	-0.960153	0.138593	-0.242688	-0.163227	-0.982969	0.084428	-0.226854	0.120677	0.966423
34308	28215249	-2.279903	0.888159	9.435302	-0.096859	-0.048895	-0.054956	0.011092	0.008397	-0.003162				-0.005700	0.002220	0.023588	1.000000	0.000014	0.000010	-0.000004	-0.076332	0.118740	-0.051879	-0.988627	4.994110	14.045880	171.785489	-0.960149	0.138608	-0.242699	-0.163248	-0.982964	0.084451	-0.226859	0.120705	0.966419
34309	28215274	-2.319916	0.860604	9.439175	-0.055152	-0.026452	-0.043840	0.014572	0.013678	-0.001071	-0.213636	-0.494805	-0.435282	-0.005799	0.002151	0.023598	1.000000	0.000018	0.000017	-0.000001	-0.076339	0.118750	-0.051897	-0.988624	4.996031	14.047235	171.784976	-0.960142	0.138616	-0.242722	-0.163267	-0.982958	0.084482	-0.226875	0.120743	0.966410
34310	28215299	-2.344787	0.834410	9.456375	-0.031068	-0.001894	-0.023394	0.010855	0.015450	-0.001669				-0.005862	0.002086	0.023641	1.000000	0.000014	0.000019	-0.000002	-0.076346	0.118763	-0.051910	-0.988621	4.997404	14.048850	171.784397	-0.960133	0.138624	-0.242749	-0.163284	-0.982953	0.084505	-0.226897	0.120773	0.966401
34311	28215324	-2.343399	0.839907	9.460388	-0.034366	-0.006529	-0.019389	0.005922	0.012693	0.000432				-0.005858	0.002100	0.023651	1.000000	0.000007	0.000016	0.000001	-0.076350	0.118772	-0.051918	-0.988619	4.998137	14.050045	171.784092	-0.960128	0.138629	-0.242769	-0.163294	-0.982951	0.084517	-0.226914	0.120790	0.966395
34312	28215349	-2.354381	0.856464	9.449779	-0.024339	-0.025255	-0.025576	0.010785	0.014693	0.002791				-0.005886	0.002141	0.023625	1.000000	0.000013	0.000018	0.000003	-0.076351	0.118784	-0.051931	-0.988617	4.999658	14.051497	171.784160	-0.960122	0.138627	-0.242794	-0.163301	-0.982947	0.084542	-0.226934	0.120819	0.966387
34313	28215374	-2.351625	0.863373	9.447143	-0.028120	-0.031742	-0.028207	0.007538	0.022471	0.001940	-0.214112	-0.493352	-0.434768	-0.005878	0.002158	0.023618	1.000000	0.000009	0.000028	0.000002	-0.076353	0.118806	-0.051942	-0.988614	5.000707	14.054068	171.784203	-0.960111	0.138624	-0.242837	-0.163308	-0.982945	0.084559	-0.226974	0.120843	0.966375
34314	28215399	-2.347442	0.863402	9.432523	-0.029097	-0.032863	-0.043350	0.007305	0.020301	-0.007226				-0.005868	0.002158	0.023581	1.000000	0.000009	0.000025	-0.000009	-0.076365	0.118825	-0.051951	-0.988610	5.001388	14.056445	171.782869	-0.960098	0.138645	-0.242878	-0.163337	-0.982939	0.084569	-0.227009	0.120866	0.966364
34315	28215424	-2.341945	0.845560	9.424481	-0.030127	-0.015246	-0.053966	0.008193	0.024411	0.000566				-0.005854	0.002114	0.023561	1.000000	0.000010	0.000031	0.000001	-0.076369	0.118849	-0.051962	-0.988606	5.002488	14.059311	171.782735	-0.960086	0.138646	-0.242926	-0.163348	-0.982936	0.084587	-0.227053	0.120892	0.966350
34316	28215449	-2.314466	0.820680	9.448369	-0.058406	0.016076	-0.039666	0.006361	0.025946	-0.002776				-0.005785	0.002052	0.023621	1.000000	0.000008	0.000032	-0.000003	-0.076376	0.118875	-0.051970	-0.988602	5.003211	14.062438	171.782128	-0.960071	0.138654	-0.242979	-0.163366	-0.982932	0.084598	-0.227102	0.120915	0.966336
34317	28215474	-2.299260	0.837230	9.439119	-0.074476	0.000988	-0.050898	0.003713	0.033140	-0.001110	-0.214589	-0.492863	-0.434758	-0.005747	0.002093	0.023598	1.000000	0.000005	0.000041	-0.000001	-0.076380	0.118910	-0.051977	-0.988597	5.003636	14.066570	171.781860	-0.960053	0.138656	-0.243049	-0.163378	-0.982929	0.084604	-0.227169	0.120933	0.966317
34318	28215499	-2.286850	0.855087	9.443161	-0.090813	-0.014101	-0.048503	0.007813	0.033407	-0.003649				-0.005716	0.002138	0.023608	1.000000	0.000010	0.000042	-0.000005	-0.076387	0.118946	-0.051988	-0.988592	5.004559	14.070773	171.781221	-0.960034	0.138664	-0.243120	-0.163399	-0.982925	0.084618	-0.227235	0.120961	0.966298
34319	28215524	-2.321320	0.860552	9.451149	-0.061229	-0.023287	-0.031946	0.001037	0.035138	-0.006968				-0.005802	0.002151	0.023628	1.000000	0.000001	0.000044	-0.000009	-0.076398	0.118984	-0.051990	-0.988586	5.004398	14.075263	171.780117	-0.960012	0.138680	-0.243196	-0.163424	-0.982921	0.084613	-0.227308	0.120974	0.966280
34320	28215549	-2.318537	0.870277	9.437877	-0.063462	-0.033861	-0.044630	0.003763	0.041623	-0.008719				-0.005795	0.002176	0.023595	1.000000	0.000005	0.000052	-0.000011	-0.076411	0.119030	-0.051996	-0.988580	5.004585	14.080702	171.778838	-0.959986	0.138698	-0.243288	-0.163455	-0.982916	0.084614	-0.227396	0.120995	0.966256
34321	28215574	-2.325431	0.879848	9.453872	-0.063126	-0.042013	-0.026691	0.004891	0.044148	-0.005440	-0.214544	-0.493338	-0.433773	-0.005812	0.002200	0.023635	1.000000	0.000006	0.000055	-0.000007	-0.076420	0.119080	-0.052004	-0.988573	5.005059	14.086459	171.778075	-0.959960	0.138707	-0.243386	-0.163478	-0.982911	0.084620	-0.227489	0.121020	0.966231
34322	28215599	-2.333708	0.849596	9.447123	-0.049737	-0.013901	-0.033762	0.009094	0.049432	-0.007233				-0.005833	0.002124	0.023618	1.000000	0.000011	0.000062	-0.000009	-0.076431	0.119135	-0.052018	-0.988564	5.006087	14.092993	171.777116	-0.959930	0.138719	-0.243496	-0.163508	-0.982905	0.084635	-0.227593	0.121057	0.966202
34323	28215624	-2.329648	0.837139	9.463031	-0.056319	0.000985	-0.020441	0.004338	0.049230	-0.008214				-0.005823	0.002093	0.023658	1.000000	0.000005	0.000062	-0.000010	-0.076443	0.119190	-0.052026	-0.988556	5.006397	14.099510	171.776009	-0.959900	0.138734	-0.243607	-0.163538	-0.982900	0.084638	-0.227699	0.121083	0.966174
34324	28215649	-2.351737	0.843936	9.484331	-0.042209	-0.005994	0.006090	0.003627	0.049987	-0.008534				-0.005878	0.002110	0.023711	1.000000	0.000005	0.000062	-0.000011	-0.076455	0.119247	-0.052032	-0.988548	5.006597	14.106139	171.774866	-0.959870	0.138749	-0.243719	-0.163568	-0.982895	0.084639	-0.227806	0.121107	0.966146
34325	28215674	-2.329643	0.857774	9.468423	-0.063366	-0.018092	-0.013511	0.006315	0.053443	-0.006004	-0.213657	-0.495771	-0.436280	-0.005823	0.002144	0.023671	1.000000	0.000008	0.000067	-0.000008	-0.076464	0.119307	-0.052043	-0.988540	5.007284	14.113230	171.774140	-0.959838	0.138757	-0.243839	-0.163593	-0.982890	0.084648	-0.227921	0.121139	0.966115
34326	28215699	-2.317141	0.863380	9.437859	-0.070635	-0.025331	-0.045623	0.005679	0.059743	-0.008336				-0.005791	0.002158	0.023595	1.000000	0.000007	0.000075	-0.000010	-0.076475	0.119376	-0.052053	-0.988530	5.007815	14.121249	171.773151	-0.959802	0.138769	-0.243975	-0.163624	-0.982884	0.084654	-0.228051	0.121171	0.966080
34327	28215724	-2.277173	0.861995	9.439212	-0.110463	-0.017849	-0.054201	0.009374	0.061357	-0.010188				-0.005691	0.002155	0.023598	1.000000	0.000012	0.000077	-0.000013	-0.076490	0.119446	-0.052068	-0.988520	5.008814	14.129521	171.771911	-0.959764	0.138784	-0.244115	-0.163662	-0.982877	0.084668	-0.228184	0.121213	0.966043
34328	28215749	-2.290898	0.892324	9.428658	-0.101224	-0.050575	-0.058490	0.007264	0.060935	-0.012907				-0.005725	0.002231	0.023572	1.000000	0.000009	0.000076	-0.000016	-0.076507	0.119516	-0.052080	-0.988509	5.009412	14.137767	171.770266	-0.959725	0.138807	-0.244254	-0.163704	-0.982869	0.084675	-0.228316	0.121250	0.966007
34329	28215774	-2.259201	0.890900	9.432668	-0.133998	-0.044069	-0.062501	0.002943	0.066090	-0.011940	-0.212692	-0.496266	-0.435801	-0.005646	0.002227	0.023582	1.000000	0.000004	0.000083	-0.000015	-0.076522	0.119593	-0.052086	-0.988498	5.009441	14.146737	171.768829	-0.959684	0.138826	-0.244406	-0.163742	-0.982863	0.084672	-0.228463	0.121278	0.965969
34330	28215799	-2.299241	0.879836	9.449888	-0.099300	-0.036452	-0.037031	0.002915	0.071342	-0.012071				-0.005746	0.002200	0.023625	1.000000	0.000004	0.000089	-0.000015	-0.076537	0.119676	-0.052094	-0.988487	5.009478	14.156458	171.767440	-0.959639	0.138843	-0.244571	-0.163780	-0.982857	0.084669	-0.228622	0.121307	0.965928
34331	28215824	-2.308966	0.878359	9.477811	-0.097876	-0.032492	-0.007821	0.009169	0.075221	-0.014473				-0.005770	0.002196	0.023695	1.000000	0.000011	0.000094	-0.000018	-0.076556	0.119764	-0.052109	-0.988474	5.010336	14.166762	171.765749	-0.959592	0.138865	-0.244745	-0.163828	-0.982848	0.084679	-0.228788	0.121354	0.965883
34332	28215849	-2.319939	0.870156	9.467145	-0.085472	-0.026844	-0.016147	0.009190	0.080116	-0.017177				-0.005797	0.002175	0.023668	1.000000	0.000011	0.000100	-0.000021	-0.076577	0.119857	-0.052124	-0.988460	5.011115	14.177798	171.763722	-0.959540	0.138892	-0.244932	-0.163882	-0.982838	0.084688	-0.228966	0.121402	0.965835
34333	28215874	-2.354399	0.886653	9.468513	-0.057406	-0.047189	-0.004958	0.009581	0.081702	-0.012971	-0.214061	-0.495271	-0.434291	-0.005884	0.002216	0.023672	1.000000	0.000012	0.000102	-0.000016	-0.076594	0.119953	-0.052140	-0.988446	5.012107	14.189009	171.762334	-0.959489	0.138908	-0.245121	-0.163926	-0.982830	0.084701	-0.229147	0.121451	0.965785
34334	28215899	-2.362726	0.856358	9.477714	-0.048574	-0.017301	0.003394	0.003107	0.086686	-0.018488				-0.005904	0.002141	0.023695	1.000000	0.000004	0.000108	-0.000023	-0.076615	0.120056	-0.052149	-0.988432	5.011988	14.200999	171.760200	-0.959433	0.138937	-0.245324	-0.163980	-0.982821	0.084694	-0.229343	0.121487	0.965734
34335	28215924	-2.364184	0.846643	9.498950	-0.052567	-0.005065	0.023426	0.004631	0.088525	-0.022246				-0.005908	0.002117	0.023748	1.000000	0.000006	0.000111	-0.000028	-0.076642	0.120161	-0.052158	-0.988416	5.011956	14.213299	171.757536	-0.959375	0.138974	-0.245532	-0.164043	-0.982811	0.084689	-0.229542	0.121527	0.965682
34336	28215605																																			
34337	28215949	-2.375197	0.860400	9.506979	-0.048207	-0.018620	0.035040	0.011006	0.089569	-0.023639				-0.005935	0.002151	0.023768	1.000000	0.000014	0.000112	-0.000030	-0.076671	0.120266	-0.052176	-0.988400	5.012790	14.225766	171.754680	-0.959315	0.139014	-0.245743	-0.164114	-0.982798	0.084699	-0.229742	0.121583	0.965627
34338	28215605																																			
34339	28215974	-2.383448	0.864581	9.492353	-0.040149	-0.024701	0.023441	0.009936	0.095421	-0.018254	-0.212672	-0.495300	-0.434804	-0.005956	0.002161	0.023732	1.000000	0.000012	0.000119	-0.000023	-0.076723	0.120383	-0.052208	-0.988380	5.014949	14.239693	171.749460	-0.959243	0.139093	-0.245979	-0.164232	-0.982776	0.084730	-0.229957	0.121674	0.965565
34340	28215999	-2.393045	0.864580	9.484378	-0.031416	-0.026512	0.018097	0.012156	0.100084	-0.023517				-0.005980	0.002161	0.023712	1.000000	0.000015	0.000125	-0.000029	-0.076751	0.120501	-0.052227	-0.988363	5.015984	14.253658	171.746758	-0.959177	0.139130	-0.246215	-0.164303	-0.982763	0.084742	-0.230181	0.121737	0.965503
34341	28216024	-2.408225	0.857674	9.491004	-0.019612	-0.020685	0.027645	0.007591	0.099823	-0.024307				-0.006018	0.002144	0.023728	1.000000	0.000009	0.000125	-0.000030	-0.076780	0.120620	-0.052241	-0.988345	5.016335	14.267596	171.743937	-0.959111	0.139168	-0.246451	-0.164374	-0.982751	0.084743	-0.230406	0.121788	0.965443
34342	28216049	-2.391600	0.868813	9.457783	-0.031972	-0.032786	-0.007587	0.012645	0.097685	-0.022945				-0.005976	0.002172	0.023645	1.000000	0.000016	0.000122	-0.000029	-0.076808	0.120736	-0.052262	-0.988328	5.017453	14.281212	171.741289	-0.959047	0.139204	-0.246681	-0.164443	-0.982738	0.084756	-0.230625	0.121850	0.965383
34343	28216074	-2.377858	0.914082	9.500508	-0.065011	-0.069594	0.034074	0.012000	0.102377	-0.022765	-0.213165	-0.493850	-0.434785	-0.005942	0.002285	0.023752	1.000000	0.000015	0.000128	-0.000028	-0.076836	0.120857	-0.052282	-0.988310	5.018498	14.295495	171.738728	-0.958980	0.139238	-0.246923	-0.164513	-0.982726	0.084769	-0.230854	0.121913	0.965320
34344	28216099	-2.369533	0.936129	9.488619	-0.076247	-0.091077	0.022396	0.012322	0.103770	-0.026593				-0.005921	0.002340	0.023722	1.000000	0.000015	0.000130	-0.000033	-0.076868	0.120980	-0.052302	-0.988291	5.019455	14.310025	171.735621	-0.958910	0.139281	-0.247169	-0.164591	-0.982712	0.084779	-0.231087	0.121977	0.965257
34345	28216124	-2.310248	0.903262	9.448635	-0.121067	-0.054869	-0.033673	0.013137	0.108556	-0.032490				-0.005772	0.002258	0.023622	1.000000	0.000016	0.000136	-0.000041	-0.076907	0.121110	-0.052322	-0.988271	5.020328	14.325312	171.731708	-0.958835	0.139337	-0.247427	-0.164684	-0.982695	0.084788	-0.231331	0.122045	0.965190
34346	28216149	-2.304658	0.900534	9.431341	-0.124628	-0.052938	-0.052010	0.014354	0.111337	-0.032797				-0.005758	0.002251	0.023579	1.000000	0.000018	0.000139	-0.000041	-0.076947	0.121243	-0.052344	-0.988251	5.021372	14.341000	171.727786	-0.958759	0.139393	-0.247692	-0.164778	-0.982679	0.084800	-0.231581	0.122117	0.965120
34347	28216174	-2.259169	0.915726	9.419445	-0.170852	-0.062512	-0.073522	0.010718	0.114846	-0.035588	-0.212660	-0.493854	-0.433801	-0.005644	0.002289	0.023549	1.000000	0.000013	0.000144	-0.000044	-0.076989	0.121381	-0.052362	-0.988230	5.021803	14.357224	171.723497	-0.958679	0.139455	-0.247967	-0.164877	-0.982662	0.084801	-0.231842	0.122181	0.965050
34348	28216199	-2.264591	0.935124	9.400877	-0.167475	-0.083992	-0.088495	0.014664	0.123665	-0.038327				-0.005658	0.002338	0.023503	1.000000	0.000018	0.000155	-0.000048	-0.077035	0.121529	-0.052385	-0.988207	5.022727	14.374740	171.718920	-0.958593	0.139520	-0.248263	-0.164985	-0.982643	0.084810	-0.232121	0.122258	0.964973
34349	28216224	-2.321193	0.992572	9.480851	-0.144300	-0.138093	0.007570	0.012635	0.124244	-0.045629				-0.005799	0.002481	0.023703	1.000000	0.000016	0.000155	-0.000057	-0.077089	0.121679	-0.052404	-0.988183	5.023093	14.392430	171.713274	-0.958503	0.139604	-0.248562	-0.165110	-0.982622	0.084809	-0.232403	0.122330	0.964896
34350	28216249	-2.347488	0.927854	9.492593	-0.114362	-0.076384	0.019916	0.008637	0.129163	-0.051129				-0.005865	0.002320	0.023732	1.000000	0.000011	0.000161	-0.000064	-0.077150	0.121836	-0.052418	-0.988158	5.022699	14.410892	171.706881	-0.958408	0.139699	-0.248874	-0.165245	-0.982601	0.084796	-0.232698	0.122394	0.964817
34351	28216274	-2.351793	0.841131	9.500282	-0.100972	0.009799	0.021027	0.014724	0.130874	-0.054599	-0.210340	-0.493420	-0.434321	-0.005875	0.002103	0.023752	1.000000	0.000018	0.000164	-0.000068	-0.077215	0.121994	-0.052439	-0.988132	5.023053	14.429641	171.699999	-0.958311	0.139802	-0.249191	-0.165392	-0.982576	0.084795	-0.232995	0.122474	0.964735
34352	28216299	-2.384977	0.779134	9.520011	-0.066812	0.068888	0.043052	0.011753	0.136410	-0.057016				-0.005958	0.001948	0.023801	1.000000	0.000015	0.000171	-0.000071	-0.077282	0.122160	-0.052457	-0.988106	5.022908	14.449210	171.692831	-0.958209	0.139910	-0.249522	-0.165543	-0.982551	0.084785	-0.233306	0.122548	0.964650
34353	28216324	-2.348016	0.697813	9.555657	-0.100498	0.158753	0.061273	0.011352	0.138468	-0.063235				-0.005866	0.001745	0.023890	1.000000	0.000014	0.000173	-0.000079	-0.077357	0.122329	-0.052474	-0.988078	5.022481	14.469151	171.684773	-0.958103	0.140032	-0.249859	-0.165708	-0.982525	0.084770	-0.233622	0.122622	0.964565
34354	28216349	-2.485746	0.787165	9.587806	0.005682	0.056306	0.134289	0.017880	0.140201	-0.060682				-0.006210	0.001968	0.023971	1.000000	0.000022	0.000175	-0.000076	-0.077430	0.122499	-0.052499	-0.988050	5.023086	14.489307	171.677113	-0.957997	0.140148	-0.250199	-0.165872	-0.982497	0.084772	-0.233939	0.122713	0.964476
34355	28216374	-2.562685	0.985189	9.619023	0.035653	-0.144574	0.200469	0.018452	0.139400	-0.063126	-0.209871	-0.493429	-0.434327	-0.006402	0.002463	0.024049	1.000000	0.000023	0.000174	-0.000079	-0.077506	0.122668	-0.052524	-0.988022	5.023678	14.509379	171.669082	-0.957891	0.140269	-0.250538	-0.166041	-0.982468	0.084775	-0.234255	0.122804	0.964388
34356	28216399	-2.464652	0.967712	9.515259	-0.034307	-0.126079	0.074338	0.013179	0.136866	-0.067934				-0.006157	0.002419	0.023789	1.000000	0.000016	0.000171	-0.000085	-0.077587	0.122835	-0.052542	-0.987994	5.023325	14.529151	171.660309	-0.957784	0.140403	-0.250873	-0.166219	-0.982439	0.084761	-0.234566	0.122883	0.964302
34357	28216424	-2.416335	0.892278	9.443222	-0.054571	-0.053553	-0.013663	0.014883	0.139028	-0.071310				-0.006037	0.002231	0.023609	1.000000	0.000019	0.000174	-0.000089	-0.077673	0.123004	-0.052561	-0.987965	5.023095	14.549273	171.651065	-0.957674	0.140545	-0.251212	-0.166406	-0.982409	0.084749	-0.234882	0.122966	0.964215
34358	28216449	-2.477376	0.814817	9.558646	-0.013871	0.028708	0.106400	0.015886	0.141735	-0.067981				-0.006189	0.002037	0.023898	1.000000	0.000020	0.000177	-0.000085	-0.077754	0.123177	-0.052583	-0.987936	5.023138	14.569739	171.642346	-0.957564	0.140678	-0.251558	-0.166586	-0.982379	0.084742	-0.235204	0.123052	0.964125
34359	28216474	-2.522855	0.872430	9.602694	0.005901	-0.028164	0.165185	0.020391	0.146717	-0.072972	-0.209873	-0.494393	-0.434830	-0.006303	0.002181	0.024008	1.000000	0.000025	0.000183	-0.000091	-0.077842	0.123355	-0.052610	-0.987905	5.023653	14.590980	171.632956	-0.957448	0.140821	-0.251917	-0.166780	-0.982346	0.084743	-0.235536	0.123152	0.964031
34360	28216499	-2.453979	0.865579	9.601377	-0.062191	-0.011430	0.145950	0.016321	0.148137	-0.071685				-0.006130	0.002164	0.024005	1.000000	0.000020	0.000185	-0.000090	-0.077927	0.123536	-0.052632	-0.987875	5.023635	14.612406	171.623772	-0.957332	0.140961	-0.252279	-0.166969	-0.982314	0.084734	-0.235873	0.123242	0.963937
34361	28216524	-2.451117	0.831417	9.530771	-0.046443	0.014514	0.074257	0.019731	0.154813	-0.073548				-0.006123	0.002079	0.023828	1.000000	0.000025	0.000194	-0.000092	-0.078015	0.123725	-0.052659	-0.987843	5.024054	14.634809	171.614400	-0.957212	0.141103	-0.252657	-0.167164	-0.982281	0.084733	-0.236224	0.123342	0.963839
34362	28216549	-2.431826	0.867060	9.562835	-0.082516	-0.013194	0.103271	0.017418	0.161433	-0.071435				-0.006075	0.002168	0.023908	1.000000	0.000022	0.000202	-0.000089	-0.078100	0.123922	-0.052684	-0.987810	5.024238	14.658130	171.605424	-0.957088	0.141238	-0.253051	-0.167353	-0.982250	0.084727	-0.236593	0.123440	0.963736
34363	28216574	-2.439737	0.976082	9.483384	-0.078564	-0.130053	0.037929	0.030522	0.166175	-0.070897	-0.207952	-0.494903	-0.433869	-0.006094	0.002440	0.023710	1.000000	0.000038	0.000208	-0.000089	-0.078185	0.124123	-0.052725	-0.987776	5.026332	14.682120	171.596589	-0.956961	0.141370	-0.253456	-0.167548	-0.982214	0.084753	-0.236967	0.123571	0.963627
34364	28216599	-2.449363	0.991243	9.478099	-0.074631	-0.145952	0.036548	0.032783	0.167632	-0.070564				-0.006118	0.002478	0.023697	1.000000	0.000041	0.000210	-0.000088	-0.078271	0.124326	-0.052770	-0.987741	5.028762	14.706315	171.587821	-0.956833	0.141501	-0.253865	-0.167743	-0.982178	0.084784	-0.237343	0.123708	0.963517
34365	28216624	-2.403981	0.926543	9.475258	-0.110760	-0.075415	0.016755	0.028162	0.172633	-0.067213				-0.006005	0.002316	0.023690	1.000000	0.000035	0.000216	-0.000084	-0.078351	0.124535	-0.052810	-0.987706	5.030670	14.731182	171.579613	-0.956704	0.141622	-0.254284	-0.167929	-0.982145	0.084807	-0.237734	0.123836	0.963404
34366	28216649	-2.393085	0.892038	9.516373	-0.129529	-0.033726	0.050611	0.031352	0.178684	-0.060725				-0.005977	0.002230	0.023792	1.000000	0.000039	0.000223	-0.000076	-0.078423	0.124752	-0.052855	-0.987671	5.033294	14.756831	171.572441	-0.956574	0.141725	-0.254717	-0.168100	-0.982112	0.084841	-0.238137	0.123974	0.963287
34367	28216674	-2.412504	0.841008	9.530830	-0.110524	0.016878	0.065100	0.039598	0.187930	-0.063998	-0.209394	-0.493919	-0.434337	-0.006025	0.002102	0.023829	1.000000	0.000049	0.000235	-0.000080	-0.078500	0.124979	-0.052911	-0.987633	5.037004	14.783841	171.564906	-0.956436	0.141833	-0.255173	-0.168284	-0.982076	0.084893	-0.238559	0.124136	0.963161
34368	28216699	-2.419558	0.759819	9.543854	-0.097897	0.098626	0.072490	0.040887	0.196357	-0.059727				-0.006043	0.001899	0.023861	1.000000	0.000051	0.000245	-0.000075	-0.078571	0.125216	-0.052971	-0.987594	5.041085	14.812000	171.558113	-0.956295	0.141928	-0.255648	-0.168459	-0.982041	0.084950	-0.239000	0.124304	0.963030
34369	28216724	-2.403271	0.633093	9.570048	-0.103279	0.230255	0.082690	0.043926	0.203741	-0.053051				-0.006002	0.001582	0.023927	1.000000	0.000055	0.000255	-0.000066	-0.078635	0.125461	-0.053035	-0.987554	5.045874	14.841128	171.552402	-0.956152	0.142004	-0.256140	-0.168619	-0.982008	0.085019	-0.239458	0.124481	0.962894
34370	28216749	-2.478967	0.703231	9.584870	-0.051365	0.154085	0.122284	0.043483	0.210214	-0.047918				-0.006191	0.001757	0.023964	1.000000	0.000054	0.000263	-0.000060	-0.078691	0.125714	-0.053101	-0.987514	5.050814	14.871117	171.547536	-0.956008	0.142066	-0.256646	-0.168768	-0.981976	0.085090	-0.239931	0.124660	0.962753
34371	28216774	-2.488435	0.788613	9.561211	-0.056208	0.067612	0.109170	0.044467	0.212055	-0.047658	-0.208005	-0.493948	-0.434850	-0.006215	0.001971	0.023905	1.000000	0.000056	0.000265	-0.000060	-0.078747	0.125969	-0.053168	-0.987474	5.055909	14.901365	171.542733	-0.955861	0.142126	-0.257156	-0.168916	-0.981944	0.085164	-0.240409	0.124843	0.962610
34372	28216799	-2.491165	0.783228	9.546558	-0.054170	0.072605	0.095269	0.052190	0.215945	-0.041322				-0.006221	0.001957	0.023868	1.000000	0.000065	0.000270	-0.000052	-0.078796	0.126228	-0.053246	-0.987432	5.062362	14.932088	171.538920	-0.955715	0.142169	-0.257674	-0.169053	-0.981912	0.085260	-0.240892	0.125045	0.962463
34373	28216824	-2.528184	0.834305	9.492172	-0.019727	0.012176	0.056823	0.050174	0.224566	-0.044675				-0.006314	0.002085	0.023732	1.000000	0.000063	0.000281	-0.000056	-0.078848	0.126498	-0.053321	-0.987390	5.068426	14.964085	171.534727	-0.955563	0.142218	-0.258214	-0.169198	-0.981880	0.085349	-0.241396	0.125246	0.962310
34374	28216849	-2.533637	0.878337	9.502951	-0.030007	-0.028625	0.072354	0.049146	0.228654	-0.038598				-0.006327	0.002195	0.023759	1.000000	0.000061	0.000286	-0.000048	-0.078893	0.126772	-0.053397	-0.987347	5.074587	14.996588	171.531488	-0.955410	0.142250	-0.258762	-0.169327	-0.981849	0.085440	-0.241911	0.125445	0.962155
34375	28216874	-2.407934	0.836198	9.349917	-0.111199	0.013448	-0.111100	0.054978	0.227048	-0.039925	-0.205596	-0.494465	-0.433400	-0.006013	0.002089	0.023377	1.000000	0.000069	0.000284	-0.000050	-0.078940	0.127044	-0.053480	-0.987304	5.081527	15.028879	171.528036	-0.955257	0.142286	-0.259306	-0.169463	-0.981817	0.085544	-0.242419	0.125659	0.961999
34376	28216899	-2.263494	0.691620	9.362819	-0.233160	0.179580	-0.148726	0.055452	0.235438	-0.034271				-0.005652	0.001728	0.023409	1.000000	0.000069	0.000294	-0.000043	-0.078979	0.127326	-0.053565	-0.987259	5.088779	15.062296	171.525533	-0.955101	0.142306	-0.259869	-0.169586	-0.981786	0.085652	-0.242947	0.125876	0.961838
34377	28216924	-2.219522	0.659831	9.392015	-0.282773	0.222890	-0.135030	0.058511	0.249964	-0.040844				-0.005541	0.001648	0.023482	1.000000	0.000073	0.000312	-0.000051	-0.079026	0.127626	-0.053654	-0.987212	5.096266	15.097869	171.522254	-0.954933	0.142336	-0.260469	-0.169727	-0.981752	0.085763	-0.243508	0.126107	0.961666
34378	28216949	-2.249935	0.714673	9.460008	-0.286074	0.175502	-0.057239	0.057133	0.268336	-0.040561				-0.005617	0.001785	0.023652	1.000000	0.000071	0.000335	-0.000051	-0.079072	0.127949	-0.053743	-0.987162	5.103629	15.136060	171.519263	-0.954753	0.142361	-0.261112	-0.169866	-0.981719	0.085871	-0.244114	0.126340	0.961481
34379	28216974	-2.348987	0.772537	9.441528	-0.203669	0.104585	-0.044302	0.056194	0.283025	-0.032486	-0.203729	-0.494984	-0.433923	-0.005864	0.001930	0.023606	1.000000	0.000070	0.000354	-0.000041	-0.079106	0.128290	-0.053834	-0.987110	5.111219	15.176245	171.517664	-0.954568	0.142360	-0.261789	-0.169985	-0.981688	0.085982	-0.244755	0.126576	0.961287
34380	28216999	-2.301789	0.859632	9.343409	-0.245945	0.015975	-0.143659	0.066561	0.286233	-0.029139				-0.005746	0.002147	0.023361	1.000000	0.000083	0.000358	-0.000036	-0.079138	0.128633	-0.053938	-0.987057	5.120435	15.216844	171.516609	-0.954382	0.142350	-0.262473	-0.170103	-0.981656	0.086120	-0.245399	0.126839	0.961089
34381	28217024	-2.214743	0.844808	9.247635	-0.309976	0.033382	-0.260085	0.069529	0.301580	-0.035779				-0.005528	0.002110	0.023121	1.000000	0.000087	0.000377	-0.000045	-0.079177	0.128995	-0.054047	-0.987001	5.129873	15.259718	171.514782	-0.954183	0.142352	-0.263195	-0.170239	-0.981620	0.086261	-0.246078	0.127115	0.960878
34382	28217049	-2.184547	0.815778	9.282160	-0.349693	0.073182	-0.237665	0.068517	0.315158	-0.038372				-0.005452	0.002038	0.023208	1.000000	0.000086	0.000394	-0.000048	-0.079218	0.129374	-0.054155	-0.986942	5.139113	15.304563	171.512759	-0.953974	0.142355	-0.263950	-0.170380	-0.981583	0.086398	-0.246790	0.127393	0.960659
34383	28217074	-2.184521	0.894136	9.302356	-0.375956	0.001572	-0.211819	0.067309	0.332245	-0.035317	-0.203809	-0.493550	-0.435393	-0.005452	0.002234	0.023258	1.000000	0.000084	0.000415	-0.000044	-0.079254	0.129775	-0.054264	-0.986880	5.148360	15.351807	171.511422	-0.953755	0.142345	-0.264745	-0.170513	-0.981548	0.086533	-0.247543	0.127674	0.960428
34384	28217099	-2.155433	0.971187	9.301307	-0.424756	-0.067400	-0.214206	0.064836	0.350794	-0.036041				-0.005378	0.002426	0.023256	1.000000	0.000081	0.000438	-0.000045	-0.079290	0.130198	-0.054371	-0.986816	5.157291	15.401706	171.510233	-0.953523	0.142331	-0.265585	-0.170647	-0.981514	0.086662	-0.248340	0.127956	0.960185
34385	28217124	-2.148371	1.040143	9.265634	-0.443209	-0.135901	-0.244719	0.062381	0.373314	-0.033881				-0.005360	0.002599	0.023167	1.000000	0.000078	0.000467	-0.000042	-0.079321	0.130649	-0.054478	-0.986748	5.166036	15.454790	171.509673	-0.953278	0.142304	-0.266478	-0.170774	-0.981481	0.086786	-0.249193	0.128239	0.959926
34386	28217149	-2.239233	1.029267	9.233628	-0.355684	-0.139898	-0.252423	0.051734	0.381997	-0.037935				-0.005587	0.002572	0.023087	1.000000	0.000065	0.000477	-0.000047	-0.079354	0.131112	-0.054572	-0.986678	5.173128	15.509166	171.508636	-0.953025	0.142284	-0.267393	-0.170904	-0.981450	0.086882	-0.250070	0.128500	0.959663
34387	28217174	-2.261550	0.936846	9.291823	-0.342555	-0.042287	-0.198955	0.052466	0.393598	-0.041141	-0.202320	-0.494047	-0.433437	-0.005642	0.002341	0.023232	1.000000	0.000066	0.000492	-0.000051	-0.079391	0.131590	-0.054668	-0.986607	5.180241	15.565237	171.507287	-0.952762	0.142267	-0.268335	-0.171043	-0.981417	0.086978	-0.250975	0.128766	0.959391
34388	28217199	-2.325257	0.896555	9.388739	-0.309079	0.003056	-0.092676	0.047322	0.408854	-0.049672				-0.005801	0.002240	0.023475	1.000000	0.000059	0.000511	-0.000062	-0.079436	0.132088	-0.054758	-0.986531	5.186333	15.623596	171.504885	-0.952486	0.142267	-0.269316	-0.171198	-0.981383	0.087055	-0.251918	0.129025	0.959109
34389	28217224	-2.289521	0.860794	9.397958	-0.349498	0.047022	-0.096965	0.048506	0.424480	-0.050747				-0.005711	0.002151	0.023498	1.000000	0.000061	0.000531	-0.000063	-0.079482	0.132604	-0.054850	-0.986453	5.192607	15.684198	171.502541	-0.952197	0.142264	-0.270335	-0.171357	-0.981348	0.087134	-0.252897	0.129293	0.958815
34390	28217249	-2.267682	0.779438	9.429610	-0.374950	0.136852	-0.080070	0.054002	0.440565	-0.058433				-0.005656	0.001947	0.023577	1.000000	0.000068	0.000551	-0.000073	-0.079537	0.133141	-0.054949	-0.986371	5.199418	15.747195	171.499280	-0.951895	0.142274	-0.271393	-0.171538	-0.981309	0.087221	-0.253911	0.129580	0.958508
34391	28217274	-2.277367	0.839772	9.490998	-0.403173	0.086746	-0.013834	0.044619	0.463256	-0.066063	-0.201364	-0.494062	-0.432955	-0.005680	0.002099	0.023731	1.000000	0.000056	0.000579	-0.000083	-0.079598	0.133707	-0.055038	-0.986285	5.204659	15.813527	171.495201	-0.951573	0.142295	-0.272507	-0.171731	-0.981270	0.087280	-0.254984	0.129852	0.958187
34392	28217299	-2.348674	0.784070	9.305900	-0.289795	0.110259	-0.176924	0.059682	0.480390	-0.070044				-0.005858	0.001959	0.023268	1.000000	0.000075	0.000600	-0.000088	-0.079666	0.134292	-0.055146	-0.986194	5.211956	15.882356	171.490769	-0.951238	0.142320	-0.273663	-0.171943	-0.981225	0.087373	-0.256090	0.130167	0.957849
34393	28217324	-2.377435	0.938016	9.342300	-0.310020	-0.037491	-0.121078	0.049511	0.490943	-0.068374				-0.005929	0.002344	0.023360	1.000000	0.000062	0.000614	-0.000085	-0.079729	0.134892	-0.055243	-0.986101	5.217901	15.952669	171.486735	-0.950895	0.142337	-0.274843	-0.172145	-0.981183	0.087441	-0.257225	0.130460	0.957505
34394	28217349	-2.336004	0.949302	9.293148	-0.350376	-0.046395	-0.178963	0.049451	0.494248	-0.075600				-0.005825	0.002372	0.023237	1.000000	0.000062	0.000618	-0.000094	-0.079800	0.135496	-0.055339	-0.986007	5.223550	16.023549	171.481679	-0.950545	0.142371	-0.276032	-0.172364	-0.981139	0.087505	-0.258368	0.130755	0.957157
34395	28217374	-2.331831	0.980824	9.310537	-0.376505	-0.071732	-0.161163	0.047870	0.506327	-0.081021	-0.200860	-0.495029	-0.432475	-0.005815	0.002451	0.023280	1.000000	0.000060	0.000633	-0.000101	-0.079877	0.136116	-0.055434	-0.985910	5.228792	16.096222	171.475987	-0.950184	0.142413	-0.277251	-0.172595	-0.981093	0.087560	-0.259540	0.131051	0.956799
34396	28217399	-2.362286	0.990244	9.366415	-0.376548	-0.075009	-0.098889	0.053875	0.530210	-0.087836				-0.005890	0.002475	0.023420	1.000000	0.000067	0.000663	-0.000110	-0.079962	0.136764	-0.055537	-0.985808	5.234696	16.172392	171.469614	-0.949803	0.142464	-0.278528	-0.172846	-0.981043	0.087625	-0.260765	0.131369	0.956422
34397	28217424	-2.370542	0.976580	9.353074	-0.376132	-0.061620	-0.111026	0.052999	0.547551	-0.096652				-0.005910	0.002441	0.023387	1.000000	0.000066	0.000684	-0.000121	-0.080057	0.137435	-0.055639	-0.985701	5.240169	16.251151	171.462172	-0.949405	0.142530	-0.279848	-0.173117	-0.980990	0.087682	-0.262031	0.131692	0.956032
34398	28217449	-2.413367	0.900904	9.347484	-0.334830	0.008861	-0.111467	0.056186	0.571649	-0.106128				-0.006016	0.002251	0.023373	1.000000	0.000070	0.000715	-0.000133	-0.080162	0.138136	-0.055746	-0.985589	5.245787	16.333472	171.453656	-0.948985	0.142612	-0.281227	-0.173414	-0.980933	0.087738	-0.263353	0.132031	0.955622
34399	28217474	-2.377430	0.920226	9.320953	-0.379667	-0.005653	-0.145840	0.048138	0.589518	-0.114173	-0.198036	-0.495563	-0.432515	-0.005926	0.002300	0.023307	1.000000	0.000060	0.000737	-0.000143	-0.080274	0.138860	-0.055843	-0.985472	5.249972	16.418448	171.444193	-0.948548	0.142706	-0.282650	-0.173724	-0.980875	0.087770	-0.264719	0.132357	0.955199
34400	28217499	-2.271317	0.997131	9.366485	-0.520318	-0.056721	-0.126429	0.054514	0.606172	-0.114323				-0.005660	0.002492	0.023421	1.000000	0.000068	0.000758	-0.000143	-0.080386	0.139604	-0.055950	-0.985352	5.255117	16.505802	171.434937	-0.948098	0.142795	-0.284112	-0.174038	-0.980815	0.087816	-0.266122	0.132705	0.954761
34401	28217524	-2.202245	0.990579	9.272056	-0.574597	-0.050066	-0.237698	0.046244	0.628290	-0.118102				-0.005487	0.002476	0.023185	1.000000	0.000058	0.000785	-0.000148	-0.080500	0.140376	-0.056048	-0.985227	5.258990	16.596361	171.425424	-0.947629	0.142885	-0.285628	-0.174356	-0.980757	0.087839	-0.267580	0.133040	0.954307
34402	28217549	-1.981304	1.236926	9.253059	-0.837579	-0.259946	-0.298758	0.031514	0.654346	-0.114466				-0.004934	0.003092	0.023137	1.000000	0.000039	0.000818	-0.000143	-0.080604	0.141181	-0.056131	-0.985099	5.260996	16.690590	171.416810	-0.947142	0.142958	-0.287203	-0.174656	-0.980704	0.087830	-0.269106	0.133349	0.953835
34403	28217574	-1.874863	1.237414	9.108169	-0.915690	-0.262520	-0.469064	0.008109	0.680043	-0.129797	-0.194742	-0.495142	-0.432058	-0.004667	0.003094	0.022774	1.000000	0.000010	0.000850	-0.000162	-0.080722	0.142021	-0.056185	-0.984966	5.259078	16.788685	171.406260	-0.946628	0.143058	-0.288843	-0.174976	-0.980654	0.087753	-0.270701	0.133610	0.953346
34404	28217599	-1.942031	1.144782	8.892334	-0.794197	-0.207728	-0.664843	0.012898	0.720926	-0.146382				-0.004835	0.002862	0.022235	1.000000	0.000016	0.000901	-0.000183	-0.080858	0.142912	-0.056246	-0.984822	5.257272	16.892829	171.393791	-0.946076	0.143185	-0.290582	-0.175339	-0.980597	0.087674	-0.272390	0.133897	0.952825
34405	28217624	-1.967069	1.075502	8.995864	-0.804443	-0.126632	-0.566492	0.025485	0.752941	-0.167398				-0.004896	0.002689	0.022494	1.000000	0.000032	0.000941	-0.000209	-0.081020	0.143843	-0.056323	-0.984669	5.256458	17.001815	171.378618	-0.945490	0.143353	-0.292402	-0.175759	-0.980527	0.087610	-0.274149	0.134227	0.952274
34406	28217649	-1.995478	0.799892	9.123948	-0.782538	0.159587	-0.461918	0.028291	0.771399	-0.181027				-0.004966	0.002000	0.022815	0.999999	0.000035	0.000964	-0.000226	-0.081198	0.144797	-0.056402	-0.984510	5.255494	17.113613	171.361653	-0.944881	0.143547	-0.294267	-0.176214	-0.980451	0.087541	-0.275949	0.134570	0.951705
34407	28217674	-2.125543	0.565530	9.252081	-0.673129	0.392454	-0.323648	0.076905	0.805964	-0.209254	-0.192358	-0.494218	-0.430595	-0.005290	0.001413	0.023136	0.999999	0.000096	0.001007	-0.000262	-0.081417	0.145790	-0.056539	-0.984337	5.260354	17.230712	171.340943	-0.944233	0.143797	-0.296220	-0.176769	-0.980349	0.087567	-0.277807	0.135046	0.951097
34408	28217699	-2.108895	0.533948	9.173528	-0.681499	0.418907	-0.407656	0.069207	0.847450	-0.225845				-0.005248	0.001334	0.022940	0.999999	0.000087	0.001059	-0.000282	-0.081652	0.146837	-0.056668	-0.984155	5.263501	17.353948	171.318320	-0.943544	0.144074	-0.298274	-0.177357	-0.980244	0.087560	-0.279766	0.135518	0.950456
34409	28217724	-2.267018	0.107104	9.279755	-0.507293	0.832810	-0.298209	0.069881	0.879659	-0.238319				-0.005642	0.000267	0.023206	0.999999	0.000087	0.001100	-0.000298	-0.081899	0.147923	-0.056798	-0.983964	5.266270	17.481942	171.294268	-0.942823	0.144369	-0.300405	-0.177976	-0.980133	0.087545	-0.281798	0.136004	0.949786
34410	28217749	-2.477661	-0.160639	9.116504	-0.236132	1.047181	-0.414171	0.102581	0.914569	-0.277594				-0.006168	-0.000402	0.022798	0.999999	0.000128	0.001143	-0.000347	-0.082199	0.149052	-0.056965	-0.983759	5.272042	17.615435	171.264815	-0.942054	0.144747	-0.302627	-0.178710	-0.979997	0.087576	-0.283897	0.136584	0.949077
34411	28217774	-2.401557	-0.133366	9.555494	-0.460214	1.096382	-0.019985	0.111654	0.930484	-0.308424	-0.189058	-0.495241	-0.430645	-0.005976	-0.000334	0.023896	0.999999	0.000140	0.001163	-0.000386	-0.082537	0.150201	-0.057139	-0.983546	5.277710	17.751606	171.230957	-0.941255	0.145193	-0.304891	-0.179523	-0.979846	0.087604	-0.286027	0.137192	0.948350
34412	28217799	-2.105426	-0.217357	9.538076	-0.740695	1.224862	-0.136839	0.136484	0.942356	-0.337672				-0.005236	-0.000545	0.023851	0.999999	0.000171	0.001178	-0.000422	-0.082915	0.151364	-0.057339	-0.983324	5.285564	17.889860	171.192874	-0.940428	0.145706	-0.307188	-0.180422	-0.979675	0.087666	-0.288171	0.137867	0.947602
34413	28217824	-2.036501	-0.191306	9.572901	-0.843352	1.220433	-0.125585	0.161894	0.975791	-0.375985				-0.005062	-0.000481	0.023938	0.999999	0.000202	0.001220	-0.000470	-0.083342	0.152568	-0.057567	-0.983089	5.295337	18.033395	171.149502	-0.939554	0.146299	-0.309571	-0.181430	-0.979480	0.087756	-0.290380	0.138617	0.946818
34414	28217849	-2.199176	0.092998	9.731979	-0.813384	0.946597	0.097880	0.172696	1.008866	-0.413667				-0.005467	0.000230	0.024337	0.999999	0.000216	0.001261	-0.000517	-0.083814	0.153814	-0.057804	-0.982840	5.304935	18.182152	171.100926	-0.938633	0.146970	-0.312039	-0.182535	-0.979268	0.087840	-0.292660	0.139407	0.946000
34415	28217874	-2.425707	0.438883	9.618697	-0.656563	0.565698	0.090078	0.198971	1.036016	-0.443943	-0.184764	-0.496274	-0.429224	-0.006033	0.001095	0.024055	0.999999	0.000249	0.001295	-0.000555	-0.084327	0.155093	-0.058070	-0.982580	5.316865	18.335192	171.048168	-0.937670	0.147704	-0.314576	-0.183729	-0.979034	0.087959	-0.294988	0.140274	0.945148
34416	28217899	-2.621851	1.278816	9.828819	-0.717650	-0.249959	0.422696	0.178419	1.056734	-0.469357				-0.006520	0.003195	0.024581	0.999999	0.000223	0.001321	-0.000587	-0.084866	0.156400	-0.058308	-0.982312	5.324595	18.491533	170.991861	-0.936673	0.148491	-0.317165	-0.184968	-0.978796	0.088007	-0.297371	0.141099	0.944278
34417	28217924	-2.690389	1.893755	9.884031	-0.813597	-0.850740	0.548772	0.095734	1.068512	-0.480560				-0.006690	0.004735	0.024720	0.999999	0.000120	0.001336	-0.000601	-0.085401	0.157732	-0.058443	-0.982045	5.319836	18.649704	170.933987	-0.935655	0.149298	-0.319781	-0.186172	-0.978582	0.087847	-0.299817	0.141729	0.943410
34418	28217949	-2.683487	1.874144	9.287988	-0.666643	-0.911938	-0.018894	0.073658	1.111198	-0.524926				-0.006673	0.004688	0.023230	0.999999	0.000092	0.001389	-0.000656	-0.085983	0.159121	-0.058547	-0.981764	5.309781	18.814544	170.869952	-0.934575	0.150197	-0.322506	-0.187462	-0.978358	0.087596	-0.302370	0.142322	0.942506
34419	28217974	-2.823429	1.996497	8.567520	-0.370038	-1.153430	-0.642487	0.041974	1.165899	-0.563887	-0.178102	-0.495422	-0.426331	-0.007024	0.004995	0.021429	0.999999	0.000052	0.001457	-0.000705	-0.086602	0.160583	-0.058610	-0.981467	5.293320	18.987688	170.800704	-0.933427	0.151170	-0.325365	-0.188818	-0.978130	0.087235	-0.305062	0.142862	0.941556
34420	28217999	-2.964631	1.557167	7.939480	0.008465	-0.835557	-1.225592	-0.033559	1.216672	-0.593300				-0.007378	0.003899	0.019860	0.999999	-0.000042	0.001521	-0.000742	-0.087238	0.162117	-0.058580	-0.981161	5.264571	19.168435	170.727580	-0.932215	0.152195	-0.328346	-0.190183	-0.977916	0.086668	-0.307905	0.143239	0.940573
34421	28218024	-3.366968	0.693438	7.465618	0.666369	-0.122362	-1.610641	-0.078230	1.271356	-0.644456				-0.008386	0.001742	0.018677	0.999998	-0.000098	0.001589	-0.000806	-0.087924	0.163726	-0.058491	-0.980837	5.226836	19.357612	170.647291	-0.930926	0.153325	-0.331463	-0.191630	-0.977697	0.085949	-0.310892	0.143531	0.939545
34422	28218049	-3.492493	0.464727	7.524382	0.778693	0.087890	-1.530319	-0.106697	1.340915	-0.684679				-0.008699	0.001172	0.018825	0.999998	-0.000133	0.001676	-0.000856	-0.088647	0.165427	-0.058366	-0.980494	5.182980	19.557181	170.561637	-0.929551	0.154526	-0.334747	-0.193147	-0.977470	0.085125	-0.314052	0.143783	0.938455
34423	28218074	-3.418492	0.436265	8.143057	0.486802	0.212609	-0.975383	-0.166868	1.396147	-0.710361	-0.171547	-0.492659	-0.425399	-0.008510	0.001102	0.020372	0.999998	-0.000209	0.001745	-0.000888	-0.089386	0.167202	-0.058167	-0.980138	5.129065	19.764890	170.472559	-0.928107	0.155769	-0.338161	-0.194672	-0.977254	0.084133	-0.317364	0.143915	0.937320
34424	28218099	-3.723318	-0.494301	8.207654	0.896044	1.076266	-0.884665	-0.284906	1.460960	-0.749031				-0.009272	-0.001220	0.020537	0.999998	-0.000356	0.001826	-0.000936	-0.090141	0.169073	-0.057823	-0.979768	5.056112	19.982245	170.378127	-0.926578	0.157083	-0.341729	-0.196188	-0.977062	0.082826	-0.320880	0.143788	0.936142
34425	28218124	-5.130732	-0.817029	8.929725	1.988253	1.261955	0.257505	-0.357366	1.532951	-0.834452				-0.012786	-0.002019	0.022350	0.999997	-0.000447	0.001916	-0.001043	-0.090981	0.171045	-0.057380	-0.979374	4.968147	20.210817	170.271216	-0.924932	0.158580	-0.345475	-0.197838	-0.976860	0.081270	-0.324593	0.143517	0.934902
34426	28218149	-6.757445	-0.909932	10.298383	3.013091	1.273289	2.108312	-0.412676	1.566747	-0.902996				-0.016846	-0.002243	0.025780	0.999997	-0.000516	0.001958	-0.001129	-0.091890	0.173069	-0.056858	-0.978964	4.868190	20.444889	170.153757	-0.923207	0.160233	-0.349306	-0.199595	-0.976647	0.079518	-0.328407	0.143131	0.933628
34427	28218174	-7.710240	-0.908394	10.994582	3.608194	1.198601	3.109465	-0.431118	1.550093	-0.949272	-0.162568	-0.492337	-0.423529	-0.019225	-0.002233	0.027525	0.999997	-0.000539	0.001938	-0.001187	-0.092852	0.175077	-0.056302	-0.978548	4.762371	20.676942	170.028403	-0.921453	0.162006	-0.353098	-0.201435	-0.976417	0.077676	-0.332187	0.142701	0.932356
34428	28218199	-8.345445	-0.632318	11.875516	3.785264	0.928156	4.194152	-0.459201	1.524386	-0.994566				-0.020809	-0.001538	0.029729	0.999997	-0.000574	0.001905	-0.001243	-0.093865	0.177059	-0.055698	-0.978129	4.649252	20.905633	169.895146	-0.919679	0.163900	-0.356830	-0.203347	-0.976174	0.075720	-0.335918	0.142198	0.931096
34429	28218224	-8.762936	-0.154282	13.224324	3.552580	0.555328	5.650327	-0.526691	1.475245	-1.051774				-0.021847	-0.000335	0.033101	0.999997	-0.000658	0.001844	-0.001315	-0.094935	0.178992	-0.054992	-0.977714	4.522366	21.127701	169.751821	-0.917898	0.165953	-0.360448	-0.205326	-0.975926	0.073548	-0.339565	0.141519	0.929875
34430	28218249	-9.192260	0.097920	14.294285	3.461324	0.355800	6.833350	-0.556858	1.441233	-1.121583				-0.022916	0.000302	0.035777	0.999997	-0.000696	0.001802	-0.001402	-0.096086	0.180891	-0.054230	-0.977295	4.386350	21.345381	169.596637	-0.916092	0.168190	-0.363989	-0.207429	-0.975653	0.071235	-0.343146	0.140760	0.928675
34431	28218274	-10.135762	0.427905	16.702454	3.350116	0.173076	9.450159	-0.565574	1.371208	-1.191592	-0.152796	-0.491090	-0.425125	-0.025266	0.001137	0.041799	0.999997	-0.000707	0.001714	-0.001489	-0.097325	0.182709	-0.053433	-0.976878	4.244033	21.553461	169.429104	-0.914291	0.170624	-0.367369	-0.209675	-0.975346	0.068830	-0.346568	0.139959	0.927525
34432	28218299	-11.395084	0.919036	19.895793	3.206147	-0.118707	12.919213	-0.490195	1.231920	-1.233397				-0.028407	0.002372	0.049782	0.999997	-0.000613	0.001540	-0.001542	-0.098641	0.184349	-0.052700	-0.976477	4.108743	21.741701	169.252812	-0.912571	0.173211	-0.370423	-0.212072	-0.974985	0.066553	-0.349629	0.139290	0.926476
34433	28218324	-12.348623	1.622324	22.348689	2.988360	-0.672541	15.599070	-0.411763	1.053692	-1.220545				-0.030792	0.004132	0.055910	0.999998	-0.000515	0.001317	-0.001526	-0.099970	0.185761	-0.052045	-0.976110	3.983950	21.903973	169.075883	-0.910998	0.175828	-0.373052	-0.214500	-0.974595	0.064462	-0.352240	0.138744	0.925568
34434	28218349	-12.535411	2.020739	23.957868	2.433989	-0.913263	17.187899	-0.359912	0.888016	-1.181955				-0.031264	0.005125	0.059927	0.999998	-0.000450	0.001110	-0.001477	-0.101275	0.186961	-0.051440	-0.975778	3.867516	22.041845	168.902594	-0.909578	0.178409	-0.375284	-0.216879	-0.974195	0.062520	-0.354445	0.138258	0.924799
34435	28218374	-12.551938	2.423809	24.696068	2.039178	-1.246035	17.904043	-0.287108	0.717192	-1.154551	-0.142600	-0.489378	-0.427711	-0.031316	0.006127	0.061766	0.999998	-0.000359	0.000896	-0.001443	-0.102574	0.187941	-0.050909	-0.975482	3.761923	22.154730	168.731333	-0.908314	0.180983	-0.377109	-0.219254	-0.973774	0.060767	-0.356221	0.137878	0.924173
34436	28218399	-12.438784	2.778542	24.811654	1.769394	-1.590937	17.990331	-0.220220	0.551987	-1.112134				-0.031044	0.007007	0.062049	0.999999	-0.000275	0.000690	-0.001390	-0.103847	0.188707	-0.050449	-0.975223	3.667353	22.243329	168.564630	-0.907211	0.183509	-0.378541	-0.221589	-0.973341	0.059204	-0.357585	0.137591	0.923689
34437	28218424	-12.170246	2.975161	24.421417	1.586530	-1.819149	17.539523	-0.148438	0.382823	-1.091944				-0.030386	0.007491	0.061067	0.999999	-0.000186	0.000479	-0.001365	-0.105123	0.189256	-0.050058	-0.975000	3.583324	22.307322	168.399151	-0.906262	0.186043	-0.379574	-0.223938	-0.972887	0.057823	-0.358525	0.137404	0.923352
34438	28218449	-11.877422	3.299763	23.714998	1.478129	-2.208144	16.793376	-0.101776	0.214644	-1.055442				-0.029667	0.008296	0.059294	0.999999	-0.000127	0.000268	-0.001319	-0.106376	0.189592	-0.049711	-0.974817	3.507311	22.346735	168.237544	-0.905478	0.188545	-0.380211	-0.226244	-0.972426	0.056582	-0.359059	0.137254	0.923168
34439	28218105																																			
34440	28218105																																			
34441	28218474	-11.417828	3.543854	22.444511	1.447818	-2.559859	15.456767	-0.039117	0.072275	-1.038985	-0.134237	-0.489069	-0.429791	-0.028528	0.008899	0.056113	0.999999	-0.000049	0.000090	-0.001299	-0.107639	0.189748	-0.049425	-0.974662	3.440410	22.365945	168.076295	-0.904819	0.191066	-0.380521	-0.228579	-0.971942	0.055496	-0.359241	0.137193	0.923106
34442	28218499	-10.751235	3.746087	20.957145	1.324851	-2.856921	13.838654	0.009508	-0.047918	-1.024150				-0.026869	0.009399	0.052391	0.999999	0.000012	-0.000060	-0.001280	-0.108896	0.189746	-0.049185	-0.974535	3.381100	22.367197	167.916962	-0.904276	0.193580	-0.380541	-0.230911	-0.971445	0.054540	-0.359117	0.137190	0.923154
34443	28218524	-10.196910	3.718471	19.104561	1.491656	-2.999581	11.912985	0.039274	-0.146884	-1.017407				-0.025489	0.009326	0.047757	0.999999	0.000049	-0.000184	-0.001272	-0.110157	0.189619	-0.048970	-0.974429	3.326126	22.354094	167.757781	-0.903820	0.196110	-0.380329	-0.233252	-0.970935	0.053659	-0.358752	0.137211	0.923293
34444	28218549	-9.498250	3.665658	17.374339	1.492803	-3.068687	10.043719	0.063898	-0.225210	-0.995201				-0.023746	0.009190	0.043430	0.999999	0.000080	-0.000282	-0.001244	-0.111403	0.189391	-0.048779	-0.974341	3.275781	22.329471	167.601368	-0.903441	0.198612	-0.379932	-0.235565	-0.970420	0.052857	-0.358196	0.137252	0.923503
34445	28218574	-8.745637	3.494894	15.504119	1.523448	-3.029041	8.018233	0.067619	-0.278701	-0.986743	-0.130109	-0.490126	-0.432821	-0.021867	0.008761	0.038753	0.999999	0.000085	-0.000348	-0.001233	-0.112641	0.189097	-0.048587	-0.974266	3.226380	22.297005	167.445849	-0.903108	0.201110	-0.379408	-0.237861	-0.969902	0.052073	-0.357516	0.137274	0.923763
34446	28218599	-8.217398	3.474821	13.534362	1.754140	-3.191311	5.993485	0.074270	-0.289208	-0.981504				-0.020545	0.008709	0.033829	0.999999	0.000093	-0.000362	-0.001227	-0.113876	0.188789	-0.048403	-0.974191	3.178313	22.262871	167.291116	-0.902782	0.203598	-0.378857	-0.240150	-0.969379	0.051311	-0.356809	0.137305	0.924032
34447	28218624	-7.753985	3.263772	12.142741	1.880648	-3.100483	4.517708	0.054398	-0.273180	-0.967594				-0.019385	0.008181	0.030351	0.999999	0.000068	-0.000341	-0.001209	-0.115088	0.188501	-0.048200	-0.974114	3.128373	22.230797	167.138737	-0.902444	0.206045	-0.378338	-0.242389	-0.968863	0.050517	-0.356149	0.137293	0.924288
34448	28218649	-7.344789	3.044079	10.913175	1.999484	-2.989369	3.211760	0.017582	-0.258534	-0.961156				-0.018362	0.007632	0.027277	0.999999	0.000022	-0.000323	-0.001201	-0.116282	0.188237	-0.047956	-0.974036	3.073684	22.200640	166.987540	-0.902091	0.208471	-0.377851	-0.244579	-0.968358	0.049645	-0.355545	0.137199	0.924534
34449	28218674	-7.027381	3.050405	9.589917	2.175593	-3.127041	1.865375	0.002147	-0.203915	-0.976694	-0.126980	-0.489729	-0.436814	-0.017565	0.007647	0.023970	0.999999	0.000003	-0.000255	-0.001221	-0.117488	0.188041	-0.047698	-0.973942	3.016134	22.178276	166.834452	-0.901674	0.210914	-0.377490	-0.246790	-0.967843	0.048724	-0.355074	0.137094	0.924731
34450	28218699	-6.859490	2.956036	9.051038	2.230965	-3.090748	1.296032	-0.018293	-0.144501	-0.997614				-0.017144	0.007412	0.022624	0.999999	-0.000023	-0.000181	-0.001247	-0.118710	0.187922	-0.047418	-0.973830	2.954679	22.164420	166.678656	-0.901186	0.213386	-0.377266	-0.249029	-0.967319	0.047737	-0.354750	0.136970	0.924874
34451	28218724	-6.788635	2.840299	8.734089	2.298166	-3.023876	0.968160	-0.040603	-0.069331	-1.023342				-0.016964	0.007124	0.021833	0.999999	-0.000051	-0.000087	-0.001279	-0.119955	0.187899	-0.047116	-0.973697	2.888784	22.161345	166.519505	-0.900610	0.215893	-0.377216	-0.251305	-0.966782	0.046674	-0.354609	0.136832	0.924948
34452	28218749	-6.893663	2.805498	8.852297	2.346770	-3.014135	1.113526	-0.063719	0.014253	-1.041559				-0.017225	0.007038	0.022130	0.999999	-0.000080	0.000018	-0.001302	-0.121211	0.187981	-0.046794	-0.973541	2.818751	22.170183	166.358185	-0.899942	0.218414	-0.377359	-0.253600	-0.966237	0.045541	-0.354671	0.136682	0.924947
34453	28218774	-7.057391	2.742034	9.264349	2.349157	-2.950762	1.551972	-0.094646	0.082298	-1.057938	-0.120524	-0.490833	-0.440368	-0.017632	0.006881	0.023162	0.999999	-0.000118	0.000103	-0.001322	-0.122475	0.188152	-0.046441	-0.973366	2.743480	22.188680	166.194817	-0.899197	0.220950	-0.377658	-0.255902	-0.965686	0.044320	-0.354907	0.136496	0.924884
34454	28218799	-7.309125	2.702191	9.629839	2.438780	-2.938043	1.982033	-0.128441	0.148855	-1.071835				-0.018259	0.006784	0.024077	0.999999	-0.000161	0.000186	-0.001340	-0.123744	0.188410	-0.046053	-0.973174	2.662658	22.216589	166.029732	-0.898378	0.223496	-0.378109	-0.258203	-0.965133	0.043007	-0.355313	0.136265	0.924762
34455	28218824	-7.332584	2.638194	10.169630	2.265562	-2.828066	2.486273	-0.144281	0.199965	-1.093601				-0.018316	0.006625	0.025427	0.999999	-0.000180	0.000250	-0.001367	-0.125033	0.188733	-0.045649	-0.972966	2.578317	22.251732	165.861564	-0.897493	0.226075	-0.378677	-0.260537	-0.964566	0.041635	-0.355846	0.136026	0.924592
34456	28218849	-7.354658	2.550994	10.677427	2.106672	-2.700482	2.959641	-0.166544	0.247482	-1.102355				-0.018370	0.006408	0.026698	0.999999	-0.000208	0.000309	-0.001378	-0.126324	0.189117	-0.045224	-0.972744	2.490253	22.293497	165.692265	-0.896554	0.228658	-0.379351	-0.262868	-0.963994	0.040202	-0.356500	0.135762	0.924379
34457	28218874	-7.370023	2.407165	11.239560	1.935697	-2.509703	3.478732	-0.177936	0.287375	-1.107946	-0.113663	-0.491474	-0.445407	-0.018407	0.006050	0.028104	0.999999	-0.000222	0.000359	-0.001385	-0.127617	0.189552	-0.044789	-0.972511	2.400160	22.340761	165.522242	-0.895568	0.231239	-0.380114	-0.265198	-0.963416	0.038735	-0.357251	0.135495	0.924128
34458	28218899	-7.402103	2.223213	11.854780	1.770078	-2.277490	4.052011	-0.180541	0.324506	-1.115092				-0.018485	0.005590	0.029643	0.999999	-0.000226	0.000406	-0.001394	-0.128916	0.190032	-0.044355	-0.972266	2.309173	22.393133	165.351207	-0.894537	0.233823	-0.380960	-0.267539	-0.962827	0.037253	-0.358087	0.135246	0.923841
34459	28218924	-7.415951	2.148126	12.434458	1.570329	-2.150351	4.589686	-0.174049	0.351934	-1.114750				-0.018519	0.005403	0.031093	0.999999	-0.000218	0.000440	-0.001393	-0.130214	0.190544	-0.043933	-0.972012	2.218991	22.449178	165.180236	-0.893475	0.236396	-0.381864	-0.269881	-0.962228	0.035785	-0.358981	0.135031	0.923526
34460	28218949	-7.409066	2.106205	12.955704	1.363003	-2.058030	5.066468	-0.166471	0.366721	-1.116962				-0.018500	0.005298	0.032397	0.999999	-0.000208	0.000458	-0.001396	-0.131515	0.191073	-0.043523	-0.971751	2.129577	22.507104	165.008844	-0.892390	0.238968	-0.382798	-0.272232	-0.961619	0.034329	-0.359902	0.134845	0.923194
34461	28218974	-7.458521	2.115391	13.443831	1.201828	-2.032610	5.535833	-0.162941	0.389654	-1.116452	-0.108200	-0.492568	-0.450432	-0.018623	0.005321	0.033618	0.999999	-0.000204	0.000487	-0.001396	-0.132815	0.191628	-0.043121	-0.971483	2.040517	22.568064	164.837490	-0.891278	0.241529	-0.383781	-0.274581	-0.961002	0.032880	-0.360872	0.134684	0.922839
34462	28218999	-7.427784	2.161824	13.885589	0.974935	-2.030054	5.932271	-0.163436	0.396496	-1.112944				-0.018545	0.005437	0.034722	0.999999	-0.000204	0.000496	-0.001391	-0.134110	0.192191	-0.042719	-0.971212	1.951373	22.629739	164.666538	-0.890154	0.244078	-0.384774	-0.276919	-0.960379	0.031430	-0.361858	0.134529	0.922475
34463	28219024	-7.407517	2.148862	14.039858	0.877067	-2.011920	6.065367	-0.167964	0.398594	-1.121141				-0.018494	0.005405	0.035108	0.999999	-0.000210	0.000498	-0.001401	-0.135413	0.192757	-0.042311	-0.970936	1.860854	22.691506	164.494143	-0.889016	0.246644	-0.385769	-0.279267	-0.959746	0.029959	-0.362851	0.134366	0.922109
34464	28219049	-7.321227	2.193283	14.282147	0.671722	-2.020559	6.255413	-0.175475	0.404416	-1.122956				-0.018277	0.005517	0.035713	0.999999	-0.000219	0.000506	-0.001404	-0.136716	0.193332	-0.041894	-0.970658	1.768918	22.753862	164.321311	-0.887863	0.249211	-0.386773	-0.281608	-0.959107	0.028466	-0.363863	0.134193	0.921735
34465	28219074	-7.164473	2.196898	14.412587	0.455616	-1.987845	6.313349	-0.198794	0.403789	-1.125014	-0.100430	-0.494676	-0.456980	-0.017885	0.005526	0.036039	0.999999	-0.000248	0.000505	-0.001406	-0.138016	0.193909	-0.041448	-0.970378	1.673271	22.815876	164.147966	-0.886702	0.251781	-0.387771	-0.283930	-0.958467	0.026915	-0.364889	0.133965	0.921363
34466	28219099	-7.069327	2.253177	14.443443	0.315255	-2.034952	6.304202	-0.224045	0.406875	-1.128851				-0.017647	0.005668	0.036116	0.999999	-0.000280	0.000509	-0.001411	-0.139314	0.194494	-0.040971	-0.970095	1.573532	22.878074	163.973846	-0.885527	0.254358	-0.388771	-0.286233	-0.957826	0.025300	-0.365940	0.133683	0.920987
34467	28219124	-6.901416	2.347493	14.579512	0.060276	-2.086059	6.363767	-0.252996	0.408642	-1.132527				-0.017227	0.005905	0.036456	0.999999	-0.000316	0.000511	-0.001416	-0.140609	0.195086	-0.040458	-0.969811	1.469174	22.940254	163.798963	-0.884341	0.256942	-0.389771	-0.288513	-0.957185	0.023611	-0.367016	0.133335	0.920609
34468	28219149	-6.774983	2.382650	14.747330	-0.152826	-2.088161	6.466444	-0.293890	0.400278	-1.136914				-0.016911	0.005994	0.036875	0.999999	-0.000367	0.000500	-0.001421	-0.141899	0.195675	-0.039893	-0.969528	1.358428	23.000949	163.623159	-0.883152	0.259538	-0.390746	-0.290762	-0.956547	0.021822	-0.368103	0.132886	0.920240
34469	28219174	-6.754453	2.432014	14.816631	-0.241211	-2.145546	6.519563	-0.332073	0.397778	-1.146132	-0.093497	-0.496270	-0.460544	-0.016859	0.006120	0.037047	0.999999	-0.000415	0.000497	-0.001433	-0.143191	0.196268	-0.039279	-0.969243	1.241395	23.060993	163.445703	-0.881951	0.262155	-0.391711	-0.292992	-0.955907	0.019933	-0.369214	0.132348	0.919872
34470	28219199	-6.662933	2.319598	15.046443	-0.403921	-2.009880	6.689004	-0.373294	0.395662	-1.139856				-0.016630	0.005840	0.037622	0.999999	-0.000467	0.000495	-0.001425	-0.144465	0.196864	-0.038615	-0.968960	1.118583	23.120375	163.269001	-0.880749	0.264757	-0.392664	-0.295165	-0.955278	0.017954	-0.370350	0.131713	0.919507
34471	28219224	-6.548992	2.304957	15.271244	-0.614201	-1.963774	6.846267	-0.413802	0.393938	-1.152413				-0.016345	0.005806	0.038183	0.999999	-0.000517	0.000492	-0.001441	-0.145743	0.197466	-0.037900	-0.968674	0.988944	23.179184	163.090120	-0.879532	0.267388	-0.393608	-0.297324	-0.954645	0.015866	-0.371513	0.130984	0.919141
34472	28219249	-6.388241	2.304387	15.442887	-0.849322	-1.925458	6.935962	-0.428356	0.377083	-1.162489				-0.015944	0.005805	0.038612	0.999999	-0.000535	0.000471	-0.001453	-0.147031	0.198050	-0.037161	-0.968389	0.856333	23.235226	162.909403	-0.878316	0.270047	-0.394507	-0.299486	-0.954002	0.013733	-0.372652	0.130211	0.918790
34473	28219274	-6.259562	2.297434	15.807393	-1.126761	-1.864674	7.214846	-0.440397	0.369017	-1.166462	-0.087529	-0.497368	-0.464586	-0.015622	0.005788	0.039523	0.999999	-0.000550	0.000461	-0.001458	-0.148321	0.198626	-0.036405	-0.968103	0.721499	23.289733	162.727833	-0.877097	0.272718	-0.395381	-0.301642	-0.953351	0.011566	-0.373783	0.129408	0.918444
34474	28219299	-6.191432	2.271673	16.097301	-1.317229	-1.812935	7.448546	-0.448966	0.356245	-1.174051				-0.015452	0.005724	0.040247	0.999999	-0.000561	0.000445	-0.001468	-0.149618	0.199189	-0.035634	-0.967816	0.584721	23.342027	162.544843	-0.875877	0.275409	-0.396219	-0.303801	-0.952689	0.009370	-0.374893	0.128579	0.918108
34475	28219324	-6.157878	2.318276	16.517779	-1.548481	-1.822580	7.816083	-0.441668	0.340645	-1.171215				-0.015369	0.005841	0.041298	0.999999	-0.000552	0.000426	-0.001464	-0.150913	0.199730	-0.034870	-0.967531	0.448925	23.391684	162.362069	-0.874666	0.278098	-0.397015	-0.305956	-0.952018	0.007191	-0.375965	0.127759	0.917784
34476	28219349	-6.086523	2.350738	16.661586	-1.703430	-1.842731	7.914332	-0.425297	0.318007	-1.156433				-0.015191	0.005921	0.041657	0.999999	-0.000532	0.000398	-0.001446	-0.152196	0.200240	-0.034125	-0.967252	0.316164	23.437690	162.181386	-0.873481	0.280757	-0.397752	-0.308089	-0.951344	0.005063	-0.376977	0.126965	0.917479
34477	28219374	-5.988752	2.320487	16.648233	-1.801410	-1.814832	7.857580	-0.410848	0.291610	-1.142546	-0.081230	-0.498976	-0.472595	-0.014948	0.005844	0.041623	0.999999	-0.000514	0.000365	-0.001428	-0.153466	0.200714	-0.033395	-0.966978	0.186132	23.479526	162.002679	-0.872325	0.283390	-0.398421	-0.310202	-0.950666	0.002980	-0.377921	0.126190	0.917198
34478	28219399	-5.792827	2.275461	16.535137	-1.939840	-1.755665	7.670445	-0.385432	0.262079	-1.118511				-0.014461	0.005729	0.041340	0.999999	-0.000482	0.000328	-0.001398	-0.154714	0.201145	-0.032697	-0.966714	0.061059	23.516760	161.827561	-0.871208	0.285974	-0.399017	-0.312282	-0.949989	0.000977	-0.378783	0.125457	0.916943
34479	28219424	-5.476813	2.295252	16.361150	-2.177707	-1.728813	7.379570	-0.362677	0.231713	-1.095562				-0.013672	0.005775	0.040904	0.999999	-0.000453	0.000290	-0.001369	-0.155941	0.201535	-0.032026	-0.966458	-0.059474	23.549300	161.655895	-0.870132	0.288512	-0.399538	-0.314329	-0.949314	-0.000952	-0.379561	0.124759	0.916716
34480	28219449	-5.222590	2.311362	16.097981	-2.324639	-1.724553	7.031650	-0.334723	0.207311	-1.075466				-0.013038	0.005813	0.040246	0.999999	-0.000418	0.000259	-0.001344	-0.157151	0.201888	-0.031389	-0.966209	-0.174873	23.578026	161.487265	-0.869089	0.291008	-0.399998	-0.316356	-0.948636	-0.002797	-0.380266	0.124111	0.916512
34481	28219474	-4.979424	2.339735	15.860128	-2.473994	-1.729716	6.711259	-0.315119	0.189054	-1.055700	-0.075849	-0.499601	-0.479594	-0.012431	0.005881	0.039651	0.999999	-0.000394	0.000236	-0.001320	-0.158343	0.202214	-0.030777	-0.965966	-0.286336	23.603842	161.321639	-0.868074	0.293461	-0.400410	-0.318356	-0.947960	-0.004579	-0.380917	0.123498	0.916324
34482	28219499	-4.726788	2.380284	15.679513	-2.655729	-1.734235	6.439392	-0.293478	0.178926	-1.034475				-0.011800	0.005980	0.039199	0.999999	-0.000367	0.000224	-0.001293	-0.159515	0.202523	-0.030195	-0.965727	-0.393466	23.627937	161.159256	-0.867079	0.295866	-0.400796	-0.320326	-0.947286	-0.006292	-0.381530	0.122930	0.916146
34483	28219524	-4.596178	2.509506	15.347510	-2.701599	-1.875756	6.076894	-0.281553	0.168991	-1.013075				-0.011474	0.006302	0.038369	0.999999	-0.000352	0.000211	-0.001266	-0.160664	0.202815	-0.029630	-0.965492	-0.497633	23.650357	161.000153	-0.866106	0.298222	-0.401154	-0.322259	-0.946618	-0.007956	-0.382112	0.122385	0.915976
34484	28219549	-4.398088	2.637305	14.991595	-2.795485	-1.996526	5.665175	-0.266409	0.162232	-0.987576				-0.010979	0.006619	0.037479	0.999999	-0.000333	0.000203	-0.001234	-0.161787	0.203096	-0.029088	-0.965262	-0.598109	23.671584	160.844979	-0.865154	0.300517	-0.401494	-0.324148	-0.945958	-0.009560	-0.382669	0.121872	0.915812
34485	28219574	-4.293700	2.732280	14.636826	-2.797466	-2.113088	5.292207	-0.261977	0.152871	-0.966369	-0.073103	-0.502072	-0.482619	-0.010719	0.006856	0.036592	0.999999	-0.000327	0.000191	-0.001208	-0.162884	0.203363	-0.028556	-0.965037	-0.696689	23.691258	160.693073	-0.864224	0.302764	-0.401808	-0.325993	-0.945307	-0.011134	-0.383203	0.121364	0.915656
34486	28219599	-4.083460	2.866579	14.416612	-2.954480	-2.217092	4.999161	-0.260307	0.148056	-0.935008				-0.010194	0.007190	0.036041	0.999999	-0.000325	0.000185	-0.001169	-0.163945	0.203622	-0.028032	-0.964818	-0.793124	23.710064	160.546024	-0.863320	0.304938	-0.402109	-0.327769	-0.944673	-0.012674	-0.383726	0.120857	0.915504
34487	28219624	-3.942387	3.052606	14.336179	-3.122445	-2.372692	4.860726	-0.257744	0.147288	-0.904148				-0.009841	0.007654	0.035840	0.999999	-0.000322	0.000184	-0.001130	-0.164968	0.203879	-0.027519	-0.964604	-0.887315	23.728600	160.403749	-0.862438	0.307037	-0.402405	-0.329479	-0.944056	-0.014177	-0.384246	0.120357	0.915352
34488	28219649	-3.842993	3.333144	14.402307	-3.342555	-2.612075	4.870999	-0.262919	0.147799	-0.880766				-0.009592	0.008355	0.036005	0.999999	-0.000329	0.000185	-0.001101	-0.165962	0.204136	-0.027006	-0.964394	-0.980839	23.747051	160.265078	-0.861570	0.309079	-0.402700	-0.331131	-0.943455	-0.015669	-0.384772	0.119847	0.915198
34489	28219674	-3.753316	3.584509	14.525573	-3.566792	-2.818918	4.937302	-0.260335	0.145310	-0.838417	-0.071316	-0.505492	-0.486629	-0.009367	0.008983	0.036313	0.999999	-0.000325	0.000182	-0.001048	-0.166905	0.204388	-0.026506	-0.964192	-1.071381	23.765050	160.132989	-0.860736	0.311022	-0.402987	-0.332692	-0.942880	-0.017113	-0.385291	0.119341	0.915046
34490	28219699	-3.757439	3.823424	14.663395	-3.711913	-3.041605	5.054277	-0.267202	0.142355	-0.798157				-0.009378	0.009580	0.036657	0.999999	-0.000334	0.000178	-0.000998	-0.167798	0.204637	-0.026008	-0.963998	-1.160421	23.782549	160.007161	-0.859935	0.312869	-0.403267	-0.334158	-0.942335	-0.018532	-0.385810	0.118818	0.914895
34491	28219724	-3.826251	3.917036	14.667621	-3.700782	-3.163163	5.077765	-0.266966	0.132450	-0.747480				-0.009550	0.009814	0.036667	0.999999	-0.000334	0.000166	-0.000934	-0.168630	0.204871	-0.025521	-0.963816	-1.246266	23.798606	159.889251	-0.859184	0.314599	-0.403523	-0.335513	-0.941825	-0.019900	-0.386309	0.118289	0.914753
34492	28219749	-3.751630	3.955669	14.630575	-3.776955	-3.192293	5.006982	-0.265300	0.113587	-0.686917				-0.009365	0.009909	0.036574	1.000000	-0.000332	0.000142	-0.000859	-0.169390	0.205080	-0.025047	-0.963650	-1.328063	23.811998	159.780848	-0.858498	0.316192	-0.403737	-0.336738	-0.941360	-0.021204	-0.386766	0.117750	0.914629
34493	28219774	-3.603784	3.910939	14.433668	-3.824238	-3.137629	4.762711	-0.258386	0.090857	-0.626627	-0.066732	-0.508968	-0.491170	-0.008998	0.009796	0.036082	1.000000	-0.000323	0.000114	-0.000783	-0.170079	0.205259	-0.024592	-0.963503	-1.405057	23.822205	159.681937	-0.857884	0.317648	-0.403900	-0.337839	-0.940936	-0.022431	-0.387169	0.117210	0.914528
34494	28219799	-3.350853	3.796666	14.076969	-3.873947	-3.002061	4.332054	-0.254923	0.067852	-0.567734				-0.008367	0.009509	0.035190	1.000000	-0.000319	0.000085	-0.000710	-0.170700	0.205407	-0.024152	-0.963372	-1.477817	23.829211	159.592314	-0.857339	0.318973	-0.404012	-0.338816	-0.940557	-0.023591	-0.387521	0.116660	0.914450
34495	28219824	-3.140470	3.693703	13.625860	-3.852681	-2.900276	3.832630	-0.247687	0.050415	-0.508572				-0.007843	0.009250	0.034062	1.000000	-0.000310	0.000063	-0.000636	-0.171251	0.205530	-0.023732	-0.963259	-1.545783	23.833843	159.512011	-0.856861	0.320162	-0.404086	-0.339673	-0.940220	-0.024675	-0.387830	0.116114	0.914388
34496	28219849	-2.888343	3.591296	13.023149	-3.807149	-2.801918	3.178200	-0.244235	0.041783	-0.450130				-0.007214	0.008992	0.032556	1.000000	-0.000305	0.000052	-0.000563	-0.171733	0.205641	-0.023329	-0.963159	-1.609551	23.837385	159.440886	-0.856440	0.321217	-0.404142	-0.340406	-0.939927	-0.025692	-0.388117	0.115569	0.914335
34497	28219874	-2.565768	3.460242	12.355214	-3.785383	-2.660882	2.436759	-0.259767	0.031012	-0.384305	-0.062637	-0.513401	-0.496703	-0.006409	0.008664	0.030885	1.000000	-0.000325	0.000039	-0.000480	-0.172132	0.205740	-0.022922	-0.963077	-1.671365	23.839583	159.380106	-0.856084	0.322120	-0.404177	-0.340983	-0.939691	-0.026678	-0.388395	0.114979	0.914292
34498	28219899	-2.303737	3.358310	11.632790	-3.699446	-2.571510	1.669624	-0.261322	0.030947	-0.336839				-0.005755	0.008408	0.029079	1.000000	-0.000327	0.000039	-0.000421	-0.172473	0.205838	-0.022525	-0.963004	-1.730403	23.841916	159.326754	-0.855768	0.322911	-0.404215	-0.341457	-0.939491	-0.027620	-0.388675	0.114386	0.914247
34499	28219924	-1.954666	3.226391	10.817245	-3.640790	-2.436127	0.783049	-0.292406	0.032847	-0.283638				-0.004883	0.008078	0.027040	1.000000	-0.000366	0.000041	-0.000355	-0.172742	0.205943	-0.022105	-0.962943	-1.790534	23.844704	159.281716	-0.855496	0.323577	-0.404259	-0.341786	-0.939343	-0.028579	-0.388985	0.113721	0.914198
34500	28219949	-1.594485	2.975255	9.890863	-3.507338	-2.196293	-0.205658	-0.314766	0.051254	-0.243066				-0.003982	0.007449	0.024724	1.000000	-0.000393	0.000064	-0.000304	-0.172956	0.206074	-0.021672	-0.962886	-1.851342	23.850268	159.242933	-0.855240	0.324142	-0.404348	-0.342006	-0.939233	-0.029548	-0.389354	0.113019	0.914128
34501	28219974	-1.268788	2.684130	8.965714	-3.330633	-1.928704	-1.177747	-0.342007	0.073662	-0.202031	-0.059812	-0.517306	-0.498257	-0.003168	0.006721	0.022412	1.000000	-0.000428	0.000092	-0.000253	-0.173113	0.206236	-0.021222	-0.962833	-1.913509	23.859195	159.210449	-0.854997	0.324604	-0.404490	-0.342112	-0.939163	-0.030537	-0.389795	0.112272	0.914032
34502	28219999	-0.882695	2.340589	8.092238	-3.207438	-1.585100	-2.125080	-0.368680	0.113449	-0.171304				-0.002203	0.005861	0.020228	1.000000	-0.000461	0.000142	-0.000214	-0.173225	0.206452	-0.020757	-0.962777	-1.977647	23.873935	159.182550	-0.854741	0.324984	-0.404726	-0.342125	-0.939124	-0.031557	-0.390343	0.111494	0.913893
34503	28220024	-0.536466	2.138565	7.272457	-3.119303	-1.379961	-3.011575	-0.396384	0.161275	-0.149572				-0.001337	0.005356	0.018179	1.000000	-0.000495	0.000202	-0.000187	-0.173302	0.206730	-0.020274	-0.962714	-2.044500	23.895601	159.157768	-0.854458	0.325299	-0.405071	-0.342064	-0.939110	-0.032618	-0.391017	0.110690	0.913703
34504	28220049	-0.195489	1.757718	6.808527	-3.104592	-0.968084	-3.564730	-0.417779	0.217556	-0.132695				-0.000483	0.004403	0.017019	1.000000	-0.000522	0.000272	-0.000166	-0.173353	0.207081	-0.019782	-0.962640	-2.113500	23.925384	159.135275	-0.854133	0.325559	-0.405547	-0.341945	-0.939115	-0.033710	-0.391830	0.109882	0.913453
34505	28220074	0.043024	1.476375	6.594926	-3.134872	-0.654684	-3.850971	-0.429921	0.281189	-0.118954	-0.058029	-0.518319	-0.501257	0.000114	0.003700	0.016485	1.000000	-0.000537	0.000351	-0.000149	-0.173381	0.207510	-0.019293	-0.962552	-2.183549	23.964325	159.114516	-0.853757	0.325770	-0.406168	-0.341784	-0.939133	-0.034817	-0.392788	0.109097	0.913135
34506	28220099	0.100663	1.231590	6.554244	-3.091612	-0.415260	-3.906984	-0.434230	0.340125	-0.104909				0.000259	0.003088	0.016384	1.000000	-0.000543	0.000425	-0.000131	-0.173391	0.208010	-0.018814	-0.962452	-2.253503	24.011756	159.095540	-0.853335	0.325933	-0.406924	-0.341587	-0.939163	-0.035918	-0.393875	0.108350	0.912756
34507	28220124	-0.003339	0.957372	6.659687	-2.959241	-0.184687	-3.762648	-0.432953	0.406504	-0.091712				0.000000	0.002402	0.016648	1.000000	-0.000541	0.000508	-0.000115	-0.173383	0.208590	-0.018356	-0.962337	-2.322646	24.068741	159.078146	-0.852857	0.326047	-0.407832	-0.341363	-0.939203	-0.037003	-0.395102	0.107660	0.912307
34508	28220149	0.092483	0.753051	6.815995	-3.042185	0.050780	-3.655998	-0.436942	0.451773	-0.077145				0.000241	0.001892	0.017039	1.000000	-0.000546	0.000565	-0.000096	-0.173355	0.209224	-0.017906	-0.962212	-2.391598	24.132273	159.062660	-0.852346	0.326116	-0.408845	-0.341101	-0.939255	-0.038082	-0.396428	0.106998	0.911809
34509	28220174	0.068612	0.742805	6.984857	-3.095506	0.065883	-3.496796	-0.454685	0.492728	-0.064197	-0.054406	-0.519372	-0.505269	0.000182	0.001867	0.017461	1.000000	-0.000568	0.000616	-0.000080	-0.173306	0.209912	-0.017447	-0.962080	-2.462426	24.201726	159.048840	-0.851804	0.326144	-0.409951	-0.340793	-0.939321	-0.039188	-0.397856	0.106328	0.911266
34510	28220199	0.292767	0.799695	7.221907	-3.411056	0.106132	-3.380780	-0.454982	0.536774	-0.059013				0.000744	0.002009	0.018053	1.000000	-0.000569	0.000671	-0.000074	-0.173250	0.210651	-0.016998	-0.961936	-2.533144	24.277500	159.035430	-0.851221	0.326149	-0.411156	-0.340472	-0.939391	-0.040289	-0.399377	0.105693	0.910674
34511	28220224	0.335024	1.068123	7.571301	-3.689769	-0.100098	-3.097502	-0.455599	0.564909	-0.050752				0.000851	0.002681	0.018926	1.000000	-0.000569	0.000706	-0.000063	-0.173183	0.211425	-0.016557	-0.961786	-2.603560	24.357337	159.023008	-0.850614	0.326128	-0.412426	-0.340131	-0.939467	-0.041382	-0.400957	0.105079	0.910051
34512	28220249	0.299762	1.161641	7.945375	-3.854684	-0.164942	-2.753655	-0.456467	0.600910	-0.041306				0.000764	0.002915	0.019861	1.000000	-0.000571	0.000751	-0.000052	-0.173103	0.212242	-0.016125	-0.961628	-2.673659	24.442374	159.011695	-0.849978	0.326077	-0.413778	-0.339766	-0.939551	-0.042467	-0.402613	0.104492	0.909387
