// General information: 
//  MT Manager version: 2020.5.0 
//  XDA version: 2020.5.0 build 5678 rev 108182 built on 2021-02-04
// Device information: 
//  DeviceId: 077822CD
//  ProductCode: MTi-G-710-2A8G4
//  Firmware Version: 1.7.2
//  Hardware Version: 3.0.0
// Device settings: 
//  Filter Profile: General(1.19)
//  Option Flags: Orientation Smoother Disabled, Position/Velocity Smoother Disabled, Continuous Zero Rotation Update Disabled, AHS Disabled, ICC Disabled
//  GNSS Platform: Portable
// Coordinate system: ENU
PacketCounter	SampleTimeFine	Acc_X	Acc_Y	Acc_Z	FreeAcc_E	FreeAcc_N	FreeAcc_U	Gyr_X	Gyr_Y	Gyr_Z	Mag_X	Mag_Y	Mag_Z	VelInc_X	VelInc_Y	VelInc_Z	OriInc_q0	OriInc_q1	OriInc_q2	OriInc_q3	Quat_q0	Quat_q1	Quat_q2	Quat_q3	Roll	Pitch	Yaw	Mat[1][1]	Mat[2][1]	Mat[3][1]	Mat[1][2]	Mat[2][2]	Mat[3][2]	Mat[1][3]	Mat[2][3]	Mat[3][3]
10080	29227699	-2.631242	0.984384	9.442391				0.000519	0.000870	0.007632				-0.006578	0.002461	0.023606	1.000000	0.000001	0.000001	0.000010																
10081	29227724	-2.585888	0.904523	9.448804				-0.002542	0.000456	0.005040				-0.006465	0.002261	0.023622	1.000000	-0.000003	0.000001	0.000006																
10082	29227749	-2.590046	0.886637	9.446085				-0.000979	0.000134	0.009066				-0.006475	0.002217	0.023615	1.000000	-0.000001	0.000000	0.000011																
10083	29227774	-2.589801	0.995505	9.405199	0.022651	0.034673	0.003942	-0.001666	-0.000472	0.002469	-0.075709	0.269156	-1.512739	-0.006475	0.002489	0.023513	1.000000	-0.000002	-0.000001	0.000003	0.984450	0.035797	0.139446	0.100655	5.870248	15.506586	12.475793	0.940847	0.208164	-0.267349	-0.188197	0.977174	0.098553	0.281762	-0.042409	0.958547
10084	29227799	-2.604861	1.053397	9.396063	-0.005083	0.088636	0.004914	-0.004631	0.004201	0.005203				-0.006512	0.002634	0.023490	1.000000	-0.000006	0.000005	0.000007	0.984450	0.035792	0.139445	0.100659	5.869626	15.506508	12.476085	0.940846	0.208169	-0.267348	-0.188205	0.977174	0.098543	0.281759	-0.042397	0.958548
10085	29227824	-2.570597	0.955525	9.427699	0.054347	-0.001460	0.016436	0.005069	-0.000919	0.002709				-0.006427	0.002389	0.023569	1.000000	0.000006	-0.000001	0.000003	0.984451	0.035798	0.139439	0.100657	5.870275	15.505738	12.475929	0.940850	0.208167	-0.267335	-0.188200	0.977173	0.098554	0.281748	-0.042412	0.958551
10086	29227849	-2.573476	0.897696	9.434149	0.064238	-0.058919	0.017689	0.002666	-0.000106	0.005901				-0.006434	0.002244	0.023585	1.000000	0.000003	-0.000000	0.000007	0.984451	0.035802	0.139433	0.100660	5.870709	15.505037	12.476258	0.940852	0.208173	-0.267323	-0.188205	0.977172	0.098562	0.281738	-0.042420	0.958553
10087	29227874	-2.595534	0.926534	9.451527	0.043232	-0.036071	0.043086	0.002088	0.006495	0.002809	-0.077594	0.269672	-1.512711	-0.006489	0.002316	0.023629	1.000000	0.000003	0.000008	0.000004	0.984451	0.035804	0.139436	0.100659	5.870965	15.505321	12.476230	0.940851	0.208172	-0.267328	-0.188203	0.977172	0.098566	0.281744	-0.042424	0.958551
10088	29227899	-2.611989	0.971976	9.450333	0.018748	0.004852	0.050820	0.002855	0.004786	0.006956				-0.006530	0.002430	0.023626	1.000000	0.000004	0.000006	0.000009	0.984450	0.035808	0.139437	0.100663	5.871488	15.505302	12.476789	0.940849	0.208181	-0.267328	-0.188210	0.977169	0.098574	0.281746	-0.042430	0.958550
10089	29227924	-2.685139	0.984155	9.507533	-0.036270	-0.000963	0.126404	0.002415	0.003873	0.005384				-0.006713	0.002460	0.023769	1.000000	0.000003	0.000005	0.000007	0.984450	0.035811	0.139436	0.100665	5.871882	15.505175	12.477102	0.940848	0.208187	-0.267325	-0.188213	0.977168	0.098581	0.281745	-0.042436	0.958550
10090	29227949	-2.627171	0.969202	9.459625	0.007313	-0.001490	0.063512	-0.000080	-0.002980	0.004242				-0.006568	0.002423	0.023649	1.000000	-0.000000	-0.000004	0.000005	0.984451	0.035812	0.139427	0.100666	5.871845	15.504088	12.477142	0.940853	0.208188	-0.267307	-0.188216	0.977168	0.098581	0.281727	-0.042439	0.958556
10091	29227974	-2.576052	0.903448	9.367659	0.041947	-0.051441	-0.044786	0.006528	-0.001295	0.003102	-0.076647	0.269174	-1.512727	-0.006440	0.002258	0.023419	1.000000	0.000008	-0.000002	0.000004	0.984452	0.035820	0.139420	0.100665	5.872717	15.503259	12.477039	0.940857	0.208187	-0.267293	-0.188211	0.977167	0.098596	0.281717	-0.042457	0.958558
10092	29227999	-2.563610	0.954323	9.381142	0.047748	0.000301	-0.030171	0.001545	0.002223	0.005133				-0.006409	0.002386	0.023453	1.000000	0.000002	0.000003	0.000006	0.984452	0.035822	0.139417	0.100667	5.872970	15.502900	12.477290	0.940858	0.208192	-0.267287	-0.188215	0.977166	0.098600	0.281712	-0.042462	0.958559
10093	29228024	-2.544148	1.053454	9.369503	0.043913	0.101603	-0.036753	0.001392	-0.002025	0.008465				-0.006360	0.002634	0.023424	1.000000	0.000002	-0.000003	0.000011	0.984452	0.035826	0.139409	0.100673	5.873315	15.501888	12.477968	0.940860	0.208204	-0.267270	-0.188226	0.977163	0.098607	0.281697	-0.042468	0.958563
10094	29228049	-2.581554	0.984510	9.411821	0.033435	0.024715	0.007011	-0.002618	-0.001925	0.006422				-0.006454	0.002461	0.023530	1.000000	-0.000003	-0.000002	0.000008	0.984453	0.035823	0.139401	0.100677	5.873005	15.500920	12.478347	0.940863	0.208211	-0.267254	-0.188236	0.977162	0.098602	0.281680	-0.042464	0.958568
10095	29228074	-2.586016	0.867269	9.472615	0.068407	-0.093518	0.054938	0.001347	-0.002396	0.009212	-0.076197	0.269162	-1.513227	-0.006465	0.002168	0.023682	1.000000	0.000002	-0.000003	0.000012	0.984454	0.035827	0.139392	0.100684	5.873372	15.499844	12.479131	0.940865	0.208225	-0.267236	-0.188249	0.977158	0.098609	0.281664	-0.042470	0.958573
10096	29228099	-2.620448	0.903030	9.490008	0.034011	-0.066656	0.084338	0.006752	-0.000910	-0.000291				-0.006551	0.002257	0.023725	1.000000	0.000008	-0.000001	-0.000000	0.984455	0.035835	0.139386	0.100678	5.874143	15.499118	12.478533	0.940871	0.208216	-0.267224	-0.188237	0.977160	0.098622	0.281655	-0.042489	0.958575
10097	29228124	-2.606235	0.992950	9.365279	-0.004746	0.029447	-0.030154	0.002624	0.000596	0.002249				-0.006516	0.002482	0.023413	1.000000	0.000003	0.000001	0.000003	0.984455	0.035838	0.139382	0.100677	5.874430	15.498571	12.478332	0.940874	0.208213	-0.267214	-0.188233	0.977160	0.098627	0.281647	-0.042497	0.958577
10098	29228149	-2.635255	0.972181	9.391800	-0.020841	0.001946	0.000974	0.001024	-0.001477	0.003366				-0.006588	0.002430	0.023479	1.000000	0.000001	-0.000002	0.000004	0.984456	0.035840	0.139375	0.100676	5.874523	15.497711	12.478265	0.940878	0.208213	-0.267200	-0.188233	0.977160	0.098629	0.281633	-0.042502	0.958580
10099	29228174	-2.638189	0.951347	9.446264	-0.004400	-0.021541	0.051914	0.005057	-0.003959	0.002649	-0.078063	0.269681	-1.512705	-0.006596	0.002378	0.023616	1.000000	0.000006	-0.000005	0.000003	0.984458	0.035847	0.139365	0.100674	5.875155	15.496508	12.478055	0.940884	0.208211	-0.267180	-0.188228	0.977159	0.098640	0.281615	-0.042518	0.958585
10100	29228199	-2.634058	1.007572	9.491681	0.001225	0.032153	0.099894	0.004339	-0.008671	0.005221				-0.006585	0.002519	0.023729	1.000000	0.000005	-0.000011	0.000007	0.984460	0.035854	0.139349	0.100676	5.875767	15.494597	12.478152	0.940893	0.208214	-0.267147	-0.188230	0.977158	0.098651	0.281586	-0.042535	0.958593
10101	29228224	-2.548361	1.006627	9.378659	0.050006	0.053919	-0.031434	-0.000623	-0.005127	0.004245				-0.006371	0.002517	0.023447	1.000000	-0.000001	-0.000006	0.000005	0.984461	0.035854	0.139337	0.100677	5.875644	15.493204	12.478160	0.940899	0.208216	-0.267124	-0.188233	0.977157	0.098650	0.281563	-0.042538	0.958599
10102	29228249	-2.512520	0.906410	9.307855	0.082446	-0.033349	-0.118764	-0.006680	-0.003211	0.004697				-0.006281	0.002266	0.023270	1.000000	-0.000008	-0.000004	0.000006	0.984463	0.035847	0.139326	0.100679	5.874679	15.492078	12.478264	0.940904	0.208219	-0.267105	-0.188241	0.977157	0.098634	0.281541	-0.042525	0.958606
10103	29228274	-2.569224	0.875911	9.374227	0.053376	-0.077960	-0.043019	0.001051	-0.006586	0.004447	-0.077088	0.269668	-1.511728	-0.006423	0.002190	0.023436	1.000000	0.000001	-0.000008	0.000006	0.984464	0.035849	0.139313	0.100680	5.874798	15.490475	12.478277	0.940911	0.208221	-0.267078	-0.188244	0.977157	0.098637	0.281515	-0.042533	0.958614
10104	29228299	-2.605106	0.976013	9.463659	0.025584	0.008651	0.062170	-0.002891	-0.005443	0.004597				-0.006513	0.002440	0.023659	1.000000	-0.000004	-0.000007	0.000006	0.984466	0.035847	0.139300	0.100682	5.874363	15.489032	12.478332	0.940917	0.208223	-0.267054	-0.188249	0.977156	0.098630	0.281491	-0.042530	0.958621
10105	29228324	-2.540238	0.995443	9.425176	0.071900	0.042841	0.009875	-0.003549	-0.004637	0.003152				-0.006351	0.002489	0.023563	1.000000	-0.000004	-0.000006	0.000004	0.984468	0.035843	0.139288	0.100682	5.873780	15.487725	12.478185	0.940924	0.208222	-0.267032	-0.188252	0.977157	0.098621	0.281467	-0.042526	0.958628
10106	29228349	-2.518216	0.919841	9.395680	0.098293	-0.025118	-0.031734	-0.004995	-0.004794	0.004900				-0.006296	0.002300	0.023489	1.000000	-0.000006	-0.000006	0.000006	0.984470	0.035839	0.139276	0.100685	5.873058	15.486371	12.478295	0.940930	0.208225	-0.267009	-0.188259	0.977156	0.098610	0.281443	-0.042518	0.958636
10107	29228374	-2.516436	1.052290	9.311006	0.051366	0.108076	-0.100317	0.004020	0.000946	0.004026	-0.076594	0.268218	-1.511747	-0.006291	0.002631	0.023278	1.000000	0.000005	0.000001	0.000005	0.984470	0.035844	0.139272	0.100685	5.873616	15.485847	12.478362	0.940932	0.208227	-0.267000	-0.188259	0.977156	0.098619	0.281436	-0.042529	0.958637
10108	29228399	-2.510846	1.037313	9.268380	0.047181	0.096677	-0.144150	-0.005880	0.000212	0.001308				-0.006277	0.002593	0.023171	1.000000	-0.000007	0.000000	0.000002	0.984471	0.035836	0.139266	0.100684	5.872646	15.485258	12.478017	0.940936	0.208222	-0.266990	-0.188259	0.977157	0.098603	0.281423	-0.042516	0.958641
10109	29228424	-2.530453	0.946168	9.346553	0.067627	0.000454	-0.072961	-0.009260	-0.002791	-0.000347				-0.006326	0.002366	0.023366	1.000000	-0.000012	-0.000003	-0.000000	0.984473	0.035825	0.139256	0.100681	5.871114	15.484266	12.477381	0.940942	0.208212	-0.266974	-0.188257	0.977160	0.098578	0.281401	-0.042497	0.958649
10110	29228127																																			
10111	29228127																																			
10112	29228449	-2.565127	0.956864	9.439664	0.059067	-0.000051	0.026613	-0.007750	-0.000513	-0.004795				-0.006413	0.002392	0.023599	1.000000	-0.000010	-0.000001	-0.000006	0.984476	0.035814	0.139249	0.100672	5.869632	15.483663	12.476122	0.940950	0.208192	-0.266964	-0.188244	0.977165	0.098554	0.281386	-0.042480	0.958654
10113	29228474	-2.539113	0.915465	9.472795	0.099495	-0.036428	0.047227	-0.009948	0.001283	0.000645	-0.076223	0.269640	-1.513718	-0.006348	0.002289	0.023682	1.000000	-0.000012	0.000002	0.000001	0.984480	0.035803	0.139222	0.100669	5.867812	15.480717	12.475319	0.940966	0.208182	-0.266914	-0.188244	0.977168	0.098525	0.281331	-0.042463	0.958671
10114	29228499	-2.570756	0.894903	9.450095	0.067101	-0.062078	0.031887	-0.003855	0.003594	-0.001065				-0.006427	0.002237	0.023625	1.000000	-0.000005	0.000004	-0.000001	0.984481	0.035797	0.139220	0.100664	5.867052	15.480645	12.474674	0.940969	0.208171	-0.266913	-0.188237	0.977171	0.098512	0.281327	-0.042454	0.958672
10115	29228524	-2.548504	0.950123	9.398429	0.063037	-0.001040	-0.018143	-0.008650	0.003777	0.002162				-0.006371	0.002376	0.023496	1.000000	-0.000011	0.000005	0.000003	0.984482	0.035786	0.139218	0.100664	5.865733	15.480551	12.474510	0.940970	0.208169	-0.266911	-0.188241	0.977172	0.098490	0.281321	-0.042433	0.958675
10116	29228549	-2.625636	0.985902	9.406471	-0.014031	0.017747	0.013677	-0.010340	0.005700	0.007796				-0.006564	0.002465	0.023516	1.000000	-0.000013	0.000007	0.000010	0.984481	0.035774	0.139218	0.100672	5.864402	15.480649	12.475207	0.940967	0.208180	-0.266913	-0.188259	0.977171	0.098468	0.281319	-0.042406	0.958677
10117	29228574	-2.639373	1.027133	9.418582	-0.031401	0.054739	0.033017	-0.005530	-0.001328	0.000493	-0.075744	0.270114	-1.513225	-0.006598	0.002568	0.023546	1.000000	-0.000007	-0.000002	0.000001	0.984483	0.035767	0.139211	0.100669	5.863444	15.479853	12.474718	0.940972	0.208173	-0.266900	-0.188256	0.977173	0.098452	0.281302	-0.042395	0.958682
10118	29228599	-2.587096	0.994065	9.426480	0.025986	0.033290	0.023381	-0.010318	0.000319	-0.000177				-0.006468	0.002485	0.023566	1.000000	-0.000013	0.000000	-0.000000	0.984485	0.035754	0.139204	0.100667	5.861780	15.479301	12.474154	0.940977	0.208164	-0.266890	-0.188256	0.977176	0.098424	0.281287	-0.042371	0.958688
10119	29228624	-2.556827	0.919783	9.414291	0.065038	-0.032410	-0.003694	-0.004058	0.003512	-0.001945				-0.006392	0.002300	0.023536	1.000000	-0.000005	0.000004	-0.000002	0.984486	0.035748	0.139203	0.100661	5.860956	15.479230	12.473378	0.940980	0.208152	-0.266889	-0.188247	0.977179	0.098411	0.281283	-0.042361	0.958690
10120	29228649	-2.566628	0.864688	9.428728	0.070196	-0.088692	0.007344	-0.007078	0.004014	0.001043				-0.006416	0.002162	0.023572	1.000000	-0.000009	0.000005	0.000001	0.984486	0.035738	0.139201	0.100660	5.859819	15.479187	12.473051	0.940981	0.208146	-0.266888	-0.188247	0.977181	0.098392	0.281278	-0.042344	0.958692
10121	29228674	-2.602390	0.916971	9.438178	0.029362	-0.045353	0.031082	-0.004877	0.000814	-0.000191	-0.075716	0.270600	-1.512231	-0.006506	0.002293	0.023595	1.000000	-0.000006	0.000001	-0.000000	0.984488	0.035732	0.139196	0.100656	5.858936	15.478706	12.472492	0.940985	0.208138	-0.266880	-0.188243	0.977183	0.098377	0.281267	-0.042333	0.958695
10122	29228699	-2.523582	0.995580	9.390608	0.075207	0.050074	-0.027823	-0.005391	0.003053	-0.003396				-0.006309	0.002489	0.023477	1.000000	-0.000007	0.000004	-0.000004	0.984489	0.035724	0.139194	0.100649	5.857862	15.478591	12.471494	0.940990	0.208121	-0.266878	-0.188231	0.977187	0.098359	0.281261	-0.042320	0.958698
10123	29228724	-2.544244	0.986012	9.365298	0.050508	0.037524	-0.047514	-0.002414	0.005986	0.002150				-0.006360	0.002465	0.023413	1.000000	-0.000003	0.000007	0.000003	0.984489	0.035720	0.139195	0.100648	5.857445	15.478812	12.471361	0.940989	0.208119	-0.266882	-0.188230	0.977188	0.098352	0.281263	-0.042313	0.958697
10124	29228749	-2.578807	0.950187	9.390415	0.031794	-0.005349	-0.017733	-0.010070	0.006874	-0.002185				-0.006447	0.002376	0.023476	1.000000	-0.000013	0.000009	-0.000003	0.984490	0.035706	0.139197	0.100644	5.855764	15.479224	12.470601	0.940990	0.208106	-0.266889	-0.188225	0.977192	0.098324	0.281263	-0.042287	0.958698
10125	29228774	-2.628494	0.966524	9.437005	-0.004933	-0.001386	0.041804	-0.012016	0.003038	-0.000755	-0.077133	0.270143	-1.512712	-0.006571	0.002417	0.023593	1.000000	-0.000015	0.000004	-0.000001	0.984491	0.035691	0.139194	0.100641	5.853844	15.479068	12.469993	0.940993	0.208096	-0.266886	-0.188224	0.977195	0.098292	0.281254	-0.042257	0.958702
10126	29228799	-2.589980	0.978775	9.471658	0.038516	0.017104	0.065951	-0.002585	0.000171	-0.001115				-0.006475	0.002447	0.023679	1.000000	-0.000003	0.000000	-0.000001	0.984492	0.035687	0.139188	0.100636	5.853251	15.478508	12.469289	0.940998	0.208085	-0.266877	-0.188216	0.977198	0.098282	0.281243	-0.042253	0.958706
10127	29228824	-2.578835	0.995391	9.434474	0.035464	0.037709	0.028959	-0.012597	0.006692	-0.002080				-0.006447	0.002489	0.023586	1.000000	-0.000016	0.000008	-0.000003	0.984493	0.035670	0.139190	0.100632	5.851211	15.478892	12.468541	0.940999	0.208072	-0.266883	-0.188213	0.977202	0.098248	0.281242	-0.042220	0.958708
10128	29228849	-2.609181	0.940475	9.408996	0.009976	-0.021171	0.007238	-0.005093	0.002611	0.000933				-0.006523	0.002351	0.023522	1.000000	-0.000006	0.000003	0.000001	0.984494	0.035663	0.139187	0.100630	5.850348	15.478650	12.468177	0.941001	0.208067	-0.266879	-0.188211	0.977204	0.098233	0.281234	-0.042208	0.958710
10129	29228874	-2.632661	0.928012	9.426234	-0.004802	-0.038866	0.028803	-0.003910	0.003742	0.000624	-0.075742	0.271077	-1.512721	-0.006582	0.002320	0.023566	1.000000	-0.000005	0.000005	0.000001	0.984495	0.035658	0.139185	0.100627	5.849648	15.478575	12.467783	0.941003	0.208060	-0.266878	-0.188208	0.977205	0.098222	0.281231	-0.042198	0.958712
10130	29228899	-2.624489	0.925127	9.460811	0.012992	-0.041422	0.059489	-0.001852	0.002877	0.002275				-0.006561	0.002313	0.023652	1.000000	-0.000002	0.000004	0.000003	0.984495	0.035655	0.139183	0.100627	5.849303	15.478351	12.467621	0.941005	0.208058	-0.266874	-0.188207	0.977206	0.098216	0.281226	-0.042194	0.958714
10131	29228924	-2.628715	0.901628	9.488663	0.021216	-0.066549	0.085010	0.002359	0.001867	0.002563				-0.006572	0.002254	0.023722	1.000000	0.000003	0.000002	0.000003	0.984496	0.035658	0.139180	0.100625	5.849570	15.477980	12.467487	0.941007	0.208056	-0.266868	-0.188204	0.977206	0.098221	0.281220	-0.042201	0.958715
10132	29228949	-2.661837	0.918057	9.519293	-0.004598	-0.058744	0.124827	0.001046	-0.000864	0.005946				-0.006655	0.002295	0.023798	1.000000	0.000001	-0.000001	0.000007	0.984496	0.035660	0.139173	0.100628	5.849770	15.477170	12.467811	0.941009	0.208062	-0.266854	-0.188210	0.977205	0.098225	0.281208	-0.042205	0.958718
10133	29228974	-2.653468	0.919569	9.478064	-0.008500	-0.053722	0.083220	-0.002484	0.002263	0.007360	-0.076697	0.272056	-1.512701	-0.006634	0.002299	0.023695	1.000000	-0.000003	0.000003	0.000009	0.984496	0.035658	0.139170	0.100634	5.849534	15.476785	12.468392	0.941009	0.208072	-0.266848	-0.188222	0.977203	0.098221	0.281202	-0.042200	0.958720
10134	29228999	-2.530320	0.990353	9.313447	0.047485	0.048129	-0.100510	-0.004821	-0.000291	0.005648				-0.006326	0.002476	0.023284	1.000000	-0.000006	-0.000000	0.000007	0.984497	0.035653	0.139163	0.100637	5.848885	15.476061	12.468680	0.941011	0.208078	-0.266836	-0.188231	0.977202	0.098210	0.281188	-0.042190	0.958725
10135	29229024	-2.516384	1.004286	9.266947	0.044982	0.066696	-0.147442	-0.003912	0.005785	0.005341				-0.006291	0.002511	0.023167	1.000000	-0.000005	0.000007	0.000007	0.984497	0.035648	0.139164	0.100641	5.848378	15.476207	12.469016	0.941009	0.208083	-0.266838	-0.188239	0.977201	0.098202	0.281189	-0.042179	0.958725
10136	29229049	-2.595390	0.951454	9.414369	0.021986	-0.007699	0.009789	0.001033	0.003260	0.006254				-0.006488	0.002379	0.023536	1.000000	0.000001	0.000004	0.000008	0.984497	0.035650	0.139163	0.100644	5.848606	15.475981	12.469448	0.941009	0.208090	-0.266834	-0.188246	0.977200	0.098206	0.281186	-0.042182	0.958726
10137	29229074	-2.649533	0.923403	9.552557	0.015163	-0.052148	0.153971	-0.002035	0.000378	0.004157	-0.077219	0.273020	-1.513675	-0.006624	0.002309	0.023881	1.000000	-0.000003	0.000000	0.000005	0.984497	0.035647	0.139157	0.100646	5.848299	15.475374	12.469527	0.941011	0.208092	-0.266824	-0.188250	0.977199	0.098201	0.281175	-0.042178	0.958729
10138	29229099	-2.628992	0.862797	9.572332	0.051305	-0.108049	0.161497	0.002761	0.001119	0.003065				-0.006572	0.002157	0.023931	1.000000	0.000003	0.000001	0.000004	0.984498	0.035651	0.139153	0.100645	5.848640	15.474888	12.469455	0.941014	0.208091	-0.266816	-0.188248	0.977199	0.098207	0.281168	-0.042186	0.958731
10139	29229124	-2.541593	0.951533	9.389135	0.065368	0.004569	-0.028744	0.000444	0.004606	0.007260				-0.006354	0.002379	0.023473	1.000000	0.000001	0.000006	0.000009	0.984497	0.035652	0.139153	0.100650	5.848828	15.474839	12.470056	0.941012	0.208101	-0.266815	-0.188257	0.977197	0.098210	0.281169	-0.042187	0.958731
10140	29229149	-2.563406	0.951897	9.297343	0.018906	0.004196	-0.110893	0.001098	0.002827	0.006884				-0.006408	0.002380	0.023243	1.000000	0.000001	0.000004	0.000009	0.984497	0.035654	0.139151	0.100654	5.849088	15.474541	12.470575	0.941011	0.208110	-0.266810	-0.188265	0.977195	0.098214	0.281165	-0.042190	0.958732
10141	29229174	-2.628394	0.939198	9.382382	-0.015807	-0.025455	-0.013267	0.002076	0.003836	0.011095	-0.077203	0.272060	-1.513684	-0.006571	0.002348	0.023456	1.000000	0.000003	0.000005	0.000014	0.984496	0.035657	0.139150	0.100664	5.849659	15.474325	12.471732	0.941008	0.208129	-0.266807	-0.188283	0.977191	0.098224	0.281164	-0.042195	0.958732
10142	29229199	-2.647962	0.949732	9.503449	-0.002598	-0.024501	0.109059	0.002789	-0.004937	0.009035				-0.006620	0.002374	0.023759	1.000000	0.000003	-0.000006	0.000011	0.984497	0.035663	0.139138	0.100670	5.850214	15.472890	12.472451	0.941012	0.208143	-0.266782	-0.188294	0.977187	0.098234	0.281143	-0.042206	0.958737
10143	29229224	-2.577616	1.008940	9.502349	0.052080	0.047940	0.095056	0.002149	-0.000280	0.010598				-0.006444	0.002522	0.023756	1.000000	0.000003	-0.000000	0.000013	0.984497	0.035667	0.139132	0.100679	5.850759	15.472095	12.473472	0.941012	0.208160	-0.266769	-0.188311	0.977183	0.098243	0.281133	-0.042213	0.958740
10144	29229249	-2.513958	0.970859	9.367920	0.081357	0.029555	-0.054550	0.002091	0.002769	0.011356				-0.006285	0.002427	0.023420	1.000000	0.000003	0.000003	0.000014	0.984496	0.035671	0.139130	0.100688	5.851337	15.471724	12.474651	0.941009	0.208180	-0.266763	-0.188328	0.977179	0.098253	0.281129	-0.042218	0.958741
10145	29229274	-2.511205	0.863783	9.306385	0.087056	-0.071872	-0.124786	-0.000727	0.007188	0.009942	-0.076664	0.270134	-1.512718	-0.006278	0.002159	0.023266	1.000000	-0.000001	0.000009	0.000012	0.984495	0.035671	0.139133	0.100697	5.851474	15.472003	12.475689	0.941004	0.208197	-0.266767	-0.188345	0.977176	0.098255	0.281135	-0.042215	0.958739
10146	29229299	-2.634034	0.889589	9.402162	-0.006720	-0.076449	0.002341	0.003625	0.000486	0.007525				-0.006585	0.002224	0.023505	1.000000	0.000005	0.000001	0.000009	0.984495	0.035676	0.139128	0.100701	5.852112	15.471362	12.476267	0.941005	0.208207	-0.266757	-0.188353	0.977173	0.098266	0.281127	-0.042225	0.958741
10147	29229324	-2.642391	0.977335	9.490237	-0.006526	0.003356	0.097634	0.012091	-0.003663	0.010049				-0.006606	0.002443	0.023726	1.000000	0.000015	-0.000005	0.000013	0.984495	0.035693	0.139119	0.100707	5.854045	15.470093	12.477156	0.941008	0.208223	-0.266735	-0.188361	0.977168	0.098299	0.281113	-0.042258	0.958744
10148	29229349	-2.559612	0.993938	9.458417	0.059118	0.038220	0.046681	0.001201	-0.002490	0.007081				-0.006399	0.002485	0.023646	1.000000	0.000002	-0.000003	0.000009	0.984495	0.035696	0.139111	0.100712	5.854306	15.469035	12.477623	0.941011	0.208232	-0.266718	-0.188369	0.977166	0.098304	0.281097	-0.042264	0.958748
10149	29229374	-2.526341	0.961244	9.365230	0.070705	0.017067	-0.054747	0.002564	0.006697	0.007524	-0.076666	0.269171	-1.513222	-0.006316	0.002403	0.023413	1.000000	0.000003	0.000008	0.000009	0.984494	0.035699	0.139113	0.100717	5.854817	15.469279	12.478295	0.941007	0.208242	-0.266722	-0.188378	0.977163	0.098313	0.281104	-0.042269	0.958746
10150	29229399	-2.586907	0.957243	9.335923	0.006032	0.001642	-0.067084	0.003286	0.002484	0.009602				-0.006467	0.002393	0.023340	1.000000	0.000004	0.000003	0.000012	0.984494	0.035704	0.139111	0.100724	5.855496	15.468893	12.479210	0.941006	0.208258	-0.266715	-0.188391	0.977160	0.098324	0.281100	-0.042277	0.958747
10151	29229424	-2.577364	0.990091	9.379920	0.021037	0.033997	-0.024217	-0.002936	0.000447	0.004527				-0.006443	0.002475	0.023450	1.000000	-0.000004	0.000001	0.000006	0.984495	0.035701	0.139105	0.100726	5.855075	15.468291	12.479345	0.941008	0.208261	-0.266705	-0.188396	0.977159	0.098317	0.281089	-0.042271	0.958750
10152	29229449	-2.515344	0.950245	9.362536	0.081804	0.008755	-0.061340	-0.003211	-0.002347	0.003780				-0.006288	0.002376	0.023406	1.000000	-0.000004	-0.000003	0.000005	0.984496	0.035697	0.139096	0.100727	5.854575	15.467301	12.479326	0.941013	0.208261	-0.266688	-0.188400	0.977160	0.098310	0.281071	-0.042267	0.958756
10153	29229474	-2.478216	0.877340	9.356988	0.128992	-0.054484	-0.083730	-0.002992	0.000858	0.005981	-0.077649	0.269664	-1.514194	-0.006196	0.002193	0.023392	1.000000	-0.000004	0.000001	0.000007	0.984496	0.035694	0.139091	0.100731	5.854205	15.466736	12.479681	0.941014	0.208268	-0.266679	-0.188408	0.977158	0.098304	0.281061	-0.042261	0.958759
10154	29229499	-2.522299	0.900692	9.365026	0.085377	-0.041205	-0.061972	-0.000416	0.006571	0.007439				-0.006306	0.002252	0.023413	1.000000	-0.000001	0.000008	0.000009	0.984495	0.035694	0.139094	0.100736	5.854285	15.466964	12.480339	0.941010	0.208278	-0.266683	-0.188419	0.977156	0.098305	0.281065	-0.042258	0.958758
10155	29229524	-2.569135	0.974909	9.397163	0.036407	0.020212	-0.011374	0.000562	0.006567	0.002857				-0.006423	0.002437	0.023493	1.000000	0.000001	0.000008	0.000004	0.984495	0.035694	0.139096	0.100736	5.854325	15.467258	12.480319	0.941009	0.208278	-0.266688	-0.188418	0.977156	0.098305	0.281070	-0.042258	0.958756
10156	29229549	-2.580192	0.981708	9.411820	0.028839	0.024008	0.006295	-0.002132	0.005764	0.004475				-0.006450	0.002454	0.023530	1.000000	-0.000003	0.000007	0.000006	0.984495	0.035691	0.139097	0.100738	5.854039	15.467414	12.480526	0.941008	0.208281	-0.266690	-0.188423	0.977156	0.098301	0.281072	-0.042251	0.958756
10157	29229574	-2.530509	1.002439	9.394620	0.067055	0.055395	-0.021405	-0.000918	0.006591	0.000274	-0.078579	0.269201	-1.514187	-0.006326	0.002506	0.023487	1.000000	-0.000001	0.000008	0.000000	0.984495	0.035689	0.139100	0.100735	5.853764	15.467749	12.480124	0.941008	0.208274	-0.266696	-0.188417	0.977158	0.098296	0.281076	-0.042247	0.958755
10158	29229599	-2.519393	1.001212	9.352054	0.065833	0.058482	-0.065302	-0.004070	0.010496	0.002761				-0.006298	0.002503	0.023380	1.000000	-0.000005	0.000013	0.000003	0.984494	0.035683	0.139107	0.100735	5.853153	15.468604	12.480150	0.941004	0.208273	-0.266710	-0.188419	0.977158	0.098285	0.281088	-0.042234	0.958752
10159	29229624	-2.564969	0.958516	9.370506	0.036268	0.006782	-0.039652	-0.008763	0.010687	0.002784				-0.006412	0.002397	0.023426	1.000000	-0.000011	0.000013	0.000003	0.984493	0.035671	0.139113	0.100736	5.851870	15.469486	12.480182	0.940999	0.208273	-0.266725	-0.188424	0.977160	0.098263	0.281099	-0.042208	0.958750
10160	29229649	-2.576089	0.917126	9.394319	0.040408	-0.036998	-0.017922	0.000089	0.008799	-0.003618				-0.006440	0.002293	0.023486	1.000000	0.000000	0.000011	-0.000005	0.984494	0.035669	0.139119	0.100728	5.851595	15.470193	12.479238	0.941000	0.208257	-0.266737	-0.188408	0.977163	0.098258	0.281109	-0.042206	0.958747
10161	29229674	-2.543082	0.926644	9.422287	0.077772	-0.021938	0.001020	-0.001323	0.008886	0.001149	-0.076709	0.270609	-1.513703	-0.006357	0.002317	0.023556	1.000000	-0.000002	0.000011	0.000001	0.984493	0.035666	0.139124	0.100726	5.851307	15.470842	12.479000	0.940998	0.208252	-0.266748	-0.188404	0.977164	0.098253	0.281118	-0.042200	0.958745
10162	29229699	-2.543070	0.947286	9.422355	0.074091	-0.001586	0.003109	-0.004496	0.014977	0.005890				-0.006357	0.002368	0.023556	1.000000	-0.000006	0.000019	0.000007	0.984491	0.035660	0.139136	0.100731	5.850776	15.472290	12.479556	0.940989	0.208260	-0.266772	-0.188414	0.977163	0.098244	0.281140	-0.042183	0.958739
10163	29229724	-2.566537	0.908750	9.418222	0.058222	-0.043830	0.001621	-0.003707	0.011626	0.002384				-0.006416	0.002272	0.023546	1.000000	-0.000005	0.000015	0.000003	0.984490	0.035654	0.139144	0.100731	5.850205	15.473312	12.479543	0.940984	0.208259	-0.266789	-0.188415	0.977164	0.098234	0.281155	-0.042169	0.958735
10164	29229749	-2.611940	0.937724	9.410320	0.008004	-0.024559	0.009004	-0.002505	0.012401	0.003645				-0.006529	0.002344	0.023526	1.000000	-0.000003	0.000016	0.000005	0.984489	0.035649	0.139154	0.100732	5.849860	15.474426	12.479728	0.940979	0.208261	-0.266808	-0.188418	0.977164	0.098227	0.281172	-0.042158	0.958731
10165	29229774	-2.589777	0.992831	9.391886	0.013521	0.034715	-0.009166	-0.000517	0.009441	0.000709	-0.075759	0.272038	-1.512713	-0.006474	0.002482	0.023480	1.000000	-0.000001	0.000012	0.000001	0.984488	0.035647	0.139160	0.100729	5.849672	15.475161	12.479434	0.940976	0.208255	-0.266821	-0.188412	0.977166	0.098224	0.281184	-0.042154	0.958728
10166	29229799	-2.570487	0.984559	9.390540	0.032870	0.030878	-0.016417	-0.004007	0.010492	0.002635				-0.006426	0.002461	0.023476	1.000000	-0.000005	0.000013	0.000003	0.984488	0.035641	0.139166	0.100730	5.849064	15.476017	12.479441	0.940972	0.208254	-0.266835	-0.188414	0.977166	0.098213	0.281196	-0.042140	0.958725
10167	29229824	-2.573290	0.969347	9.411773	0.039224	0.014618	0.003193	-0.002617	0.011128	0.002958				-0.006433	0.002423	0.023530	1.000000	-0.000003	0.000014	0.000004	0.984487	0.035637	0.139174	0.100730	5.848671	15.476960	12.479505	0.940968	0.208254	-0.266851	-0.188416	0.977167	0.098206	0.281210	-0.042130	0.958721
10168	29229849	-2.576171	0.941758	9.434292	0.048259	-0.013747	0.022841	-0.002611	0.012982	-0.000124				-0.006440	0.002354	0.023586	1.000000	-0.000003	0.000016	-0.000000	0.984486	0.035632	0.139184	0.100727	5.848164	15.478211	12.479141	0.940964	0.208247	-0.266872	-0.188410	0.977169	0.098197	0.281228	-0.042119	0.958716
10169	29229874	-2.594144	0.911426	9.440839	0.039204	-0.047272	0.030924	-0.004646	0.012758	0.005639	-0.075761	0.271075	-1.513216	-0.006485	0.002279	0.023602	1.000000	-0.000006	0.000016	0.000007	0.984484	0.035625	0.139194	0.100731	5.847592	15.479347	12.479625	0.940957	0.208254	-0.266891	-0.188419	0.977168	0.098187	0.281245	-0.042102	0.958712
10170	29229899	-2.611913	0.954255	9.406380	0.004622	-0.007459	0.006836	-0.007065	0.008686	0.004177				-0.006530	0.002386	0.023516	1.000000	-0.000009	0.000011	0.000005	0.984484	0.035616	0.139198	0.100734	5.846600	15.479924	12.479833	0.940953	0.208257	-0.266901	-0.188426	0.977168	0.098170	0.281252	-0.042082	0.958711
10171	29229924	-2.592641	0.959708	9.418379	0.025207	0.001422	0.013730	-0.004619	0.009598	0.009909				-0.006481	0.002399	0.023546	1.000000	-0.000006	0.000012	0.000012	0.984482	0.035610	0.139203	0.100743	5.846188	15.480547	12.480901	0.940947	0.208274	-0.266911	-0.188446	0.977165	0.098163	0.281261	-0.042068	0.958709
10172	29229949	-2.627127	0.963741	9.438326	-0.002269	-0.002482	0.042455	-0.006056	0.010693	0.007196				-0.006568	0.002409	0.023596	1.000000	-0.000008	0.000013	0.000009	0.984481	0.035602	0.139210	0.100749	5.845467	15.481365	12.481585	0.940940	0.208284	-0.266925	-0.188459	0.977164	0.098151	0.281273	-0.042049	0.958706
10173	29229974	-2.600893	0.977552	9.429087	0.017467	0.016988	0.027954	-0.003813	0.009967	0.001125	-0.076691	0.270612	-1.513209	-0.006502	0.002444	0.023573	1.000000	-0.000005	0.000012	0.000001	0.984480	0.035596	0.139216	0.100748	5.844825	15.482169	12.481361	0.940938	0.208280	-0.266938	-0.188457	0.977166	0.098139	0.281284	-0.042037	0.958704
10174	29229999	-2.622940	0.988550	9.437089	-0.003274	0.022800	0.042590	-0.001234	0.004549	0.002968				-0.006557	0.002471	0.023593	1.000000	-0.000002	0.000006	0.000004	0.984480	0.035595	0.139216	0.100748	5.844604	15.482174	12.481327	0.940938	0.208279	-0.266939	-0.188458	0.977166	0.098136	0.281283	-0.042033	0.958704
10175	29230024	-2.624448	0.936156	9.459517	0.011443	-0.029530	0.059353	-0.003333	0.003818	0.001067				-0.006561	0.002340	0.023649	1.000000	-0.000004	0.000005	0.000001	0.984481	0.035590	0.139215	0.100746	5.844003	15.482102	12.481000	0.940939	0.208274	-0.266937	-0.188455	0.977167	0.098126	0.281279	-0.042025	0.958705
10176	29230049	-2.584517	0.910041	9.444824	0.049891	-0.046082	0.032046	-0.003074	0.007358	0.008607				-0.006461	0.002275	0.023612	1.000000	-0.000004	0.000009	0.000011	0.984480	0.035586	0.139217	0.100753	5.843752	15.482425	12.481843	0.940935	0.208287	-0.266943	-0.188470	0.977165	0.098121	0.281285	-0.042015	0.958704
10177	29230074	-2.594000	0.933613	9.389029	0.020956	-0.022599	-0.016590	-0.002715	0.005364	0.002836	-0.075807	0.270586	-1.514704	-0.006485	0.002334	0.023473	1.000000	-0.000003	0.000007	0.000004	0.984480	0.035583	0.139218	0.100753	5.843317	15.482548	12.481802	0.940934	0.208287	-0.266945	-0.188472	0.977165	0.098114	0.281285	-0.042007	0.958704
10178	29230099	-2.591133	0.994201	9.389240	0.012193	0.037440	-0.011209	-0.006613	0.006093	0.000353				-0.006478	0.002486	0.023473	1.000000	-0.000008	0.000008	0.000000	0.984480	0.035573	0.139219	0.100751	5.842228	15.482811	12.481404	0.940934	0.208280	-0.266949	-0.188470	0.977168	0.098096	0.281285	-0.041990	0.958705
10179	29230124	-2.606327	1.012012	9.411898	0.000969	0.050955	0.016315	-0.007766	0.007822	0.001410				-0.006516	0.002530	0.023530	1.000000	-0.000010	0.000010	0.000002	0.984480	0.035563	0.139222	0.100750	5.841022	15.483305	12.481189	0.940933	0.208276	-0.266958	-0.188471	0.977169	0.098075	0.281289	-0.041968	0.958705
10180	29230149	-2.600903	1.017372	9.450489	0.015910	0.055864	0.052390	-0.007093	0.006457	0.003363				-0.006502	0.002544	0.023626	1.000000	-0.000009	0.000008	0.000004	0.984480	0.035554	0.139224	0.100752	5.839984	15.483576	12.481243	0.940932	0.208276	-0.266962	-0.188477	0.977170	0.098058	0.281290	-0.041949	0.958705
10181	29230174	-2.585763	0.993979	9.446434	0.033453	0.036437	0.042170	-0.005834	0.002842	0.003003	-0.076240	0.270601	-1.513709	-0.006464	0.002485	0.023616	1.000000	-0.000007	0.000004	0.000004	0.984481	0.035546	0.139221	0.100753	5.839098	15.483337	12.481188	0.940933	0.208276	-0.266958	-0.188481	0.977171	0.098043	0.281284	-0.041935	0.958708
10182	29230199	-2.618911	0.933478	9.442218	0.012461	-0.029193	0.041046	-0.006619	0.007376	0.001295				-0.006547	0.002334	0.023606	1.000000	-0.000008	0.000009	0.000002	0.984481	0.035537	0.139224	0.100752	5.838051	15.483769	12.480949	0.940932	0.208271	-0.266965	-0.188481	0.977172	0.098025	0.281287	-0.041917	0.958708
10183	29230224	-2.628621	0.918233	9.464775	0.012458	-0.047012	0.063771	-0.002825	0.003161	-0.000745				-0.006571	0.002296	0.023662	1.000000	-0.000004	0.000004	-0.000001	0.984482	0.035533	0.139222	0.100747	5.837449	15.483630	12.480345	0.940935	0.208262	-0.266963	-0.188474	0.977175	0.098015	0.281282	-0.041910	0.958709
10184	29230249	-2.693359	0.974616	9.483552	-0.053908	-0.005965	0.104580	-0.005993	0.002044	-0.002970				-0.006733	0.002437	0.023709	1.000000	-0.000007	0.000003	-0.000004	0.984483	0.035524	0.139218	0.100741	5.836301	15.483364	12.479395	0.940939	0.208246	-0.266959	-0.188464	0.977179	0.097996	0.281274	-0.041896	0.958713
10185	29230274	-2.730749	0.926293	9.521936	-0.069309	-0.062474	0.146640	-0.006011	-0.002657	0.000295	-0.076662	0.271098	-1.512215	-0.006827	0.002316	0.023805	1.000000	-0.000008	-0.000003	0.000000	0.984485	0.035517	0.139209	0.100738	5.835261	15.482381	12.478858	0.940946	0.208238	-0.266942	-0.188461	0.977181	0.097979	0.281254	-0.041885	0.958719
10186	29230299	-2.556890	0.871670	9.402145	0.070594	-0.074538	-0.019964	-0.005683	-0.002144	0.004074				-0.006392	0.002179	0.023505	1.000000	-0.000007	-0.000003	0.000005	0.984487	0.035511	0.139200	0.100740	5.834419	15.481416	12.478886	0.940950	0.208240	-0.266926	-0.188467	0.977181	0.097966	0.281235	-0.041874	0.958725
10187	29230324	-2.501212	1.020824	9.267005	0.056738	0.088542	-0.149777	-0.004579	-0.000824	0.003329				-0.006253	0.002552	0.023167	1.000000	-0.000006	-0.000001	0.000004	0.984488	0.035506	0.139192	0.100740	5.833711	15.480650	12.478824	0.940954	0.208240	-0.266913	-0.188471	0.977181	0.097954	0.281220	-0.041865	0.958730
10188	29230349	-2.559460	0.959884	9.370511	0.042343	0.012683	-0.040964	-0.005852	-0.001377	0.000678				-0.006399	0.002400	0.023426	1.000000	-0.000007	-0.000002	0.000001	0.984489	0.035498	0.139185	0.100738	5.832713	15.479844	12.478362	0.940959	0.208233	-0.266899	-0.188470	0.977183	0.097938	0.281203	-0.041853	0.958735
10189	29230374	-2.624580	0.911219	9.502011	0.027054	-0.053787	0.097729	-0.008349	-0.004277	0.005248	-0.076680	0.271095	-1.512709	-0.006562	0.002278	0.023755	1.000000	-0.000010	-0.000005	0.000007	0.984491	0.035489	0.139173	0.100742	5.831527	15.478558	12.478532	0.940964	0.208237	-0.266878	-0.188480	0.977183	0.097919	0.281179	-0.041837	0.958743
10190	29230399	-2.679679	0.984085	9.519492	-0.033780	0.005240	0.136327	-0.002877	-0.000103	0.001571				-0.006699	0.002460	0.023799	1.000000	-0.000004	-0.000000	0.000002	0.984492	0.035486	0.139166	0.100740	5.830996	15.477920	12.478221	0.940968	0.208232	-0.266867	-0.188479	0.977184	0.097910	0.281166	-0.041831	0.958747
10191	29230424	-2.577560	0.944479	9.439618	0.047041	-0.008772	0.028620	-0.004768	-0.003870	0.003077				-0.006444	0.002361	0.023599	1.000000	-0.000006	-0.000005	0.000004	0.984494	0.035481	0.139156	0.100740	5.830239	15.476724	12.478076	0.940974	0.208231	-0.266847	-0.188482	0.977185	0.097898	0.281144	-0.041824	0.958754
10192	29230449	-2.512616	0.869179	9.329014	0.091034	-0.064066	-0.102119	-0.008106	-0.002693	0.009142				-0.006282	0.002173	0.023322	1.000000	-0.000010	-0.000003	0.000011	0.984495	0.035472	0.139145	0.100749	5.829247	15.475607	12.478845	0.940977	0.208245	-0.266828	-0.188502	0.977183	0.097882	0.281123	-0.041807	0.958761
10193	29230474	-2.622948	0.933597	9.404981	-0.003737	-0.027328	0.006462	-0.002192	-0.006402	0.003538	-0.077610	0.270633	-1.512702	-0.006558	0.002334	0.023512	1.000000	-0.000003	-0.000008	0.000004	0.984497	0.035471	0.139132	0.100749	5.828867	15.474043	12.478730	0.940984	0.208245	-0.266802	-0.188504	0.977183	0.097876	0.281096	-0.041807	0.958769
10194	29230499	-2.661741	0.988190	9.520866	-0.018365	0.013081	0.133262	-0.000417	-0.007549	-0.000723				-0.006655	0.002470	0.023802	1.000000	-0.000001	-0.000009	-0.000001	0.984499	0.035471	0.139117	0.100744	5.828568	15.472377	12.477968	0.940994	0.208234	-0.266774	-0.188496	0.977185	0.097872	0.281068	-0.041811	0.958777
10195	29230524	-2.475171	1.071446	9.340346	0.090499	0.140877	-0.081436	-0.003141	-0.006323	0.003913				-0.006188	0.002679	0.023351	1.000000	-0.000004	-0.000008	0.000005	0.984501	0.035468	0.139103	0.100745	5.828067	15.470819	12.477909	0.941002	0.208234	-0.266748	-0.188500	0.977185	0.097864	0.281040	-0.041809	0.958785
10196	29230549	-2.446188	0.934105	9.258778	0.120706	0.016532	-0.180813	-0.011580	0.002094	-0.001241				-0.006115	0.002336	0.023147	1.000000	-0.000014	0.000003	-0.000002	0.984503	0.035453	0.139099	0.100741	5.826187	15.470535	12.477216	0.941005	0.208223	-0.266743	-0.188498	0.977189	0.097833	0.281029	-0.041781	0.958789
10197	29230574	-2.497546	0.816880	9.331512	0.114928	-0.111559	-0.108838	-0.008592	0.001107	-0.002858	-0.078053	0.270164	-1.512206	-0.006244	0.002042	0.023329	1.000000	-0.000011	0.000001	-0.000004	0.984505	0.035441	0.139094	0.100735	5.824668	15.470134	12.476268	0.941011	0.208208	-0.266736	-0.188489	0.977193	0.097808	0.281017	-0.041761	0.958794
10198	29230599	-2.634173	0.871519	9.448661	0.008630	-0.091568	0.045271	-0.003119	-0.003149	0.005095				-0.006586	0.002179	0.023622	1.000000	-0.000004	-0.000004	0.000006	0.984506	0.035439	0.139084	0.100738	5.824229	15.469011	12.476433	0.941015	0.208212	-0.266717	-0.188496	0.977192	0.097801	0.280997	-0.041757	0.958800
10199	29230624	-2.610798	0.963448	9.515489	0.031946	0.000327	0.112101	-0.000997	-0.001603	0.003037				-0.006527	0.002409	0.023789	1.000000	-0.000001	-0.000002	0.000004	0.984507	0.035438	0.139076	0.100738	5.824020	15.468138	12.476316	0.941020	0.208211	-0.266702	-0.188497	0.977192	0.097798	0.280982	-0.041757	0.958804
10200	29230649	-2.538868	1.022865	9.449213	0.069868	0.076492	0.035180	-0.009501	0.006004	0.002219				-0.006347	0.002557	0.023623	1.000000	-0.000012	0.000008	0.000003	0.984507	0.035425	0.139076	0.100738	5.822590	15.468361	12.476193	0.941019	0.208209	-0.266706	-0.188501	0.977194	0.097774	0.280981	-0.041733	0.958806
10201	29230674	-2.515137	1.041189	9.329574	0.055185	0.104497	-0.084084	-0.007343	0.003485	-0.000335	-0.077131	0.271107	-1.512209	-0.006288	0.002603	0.023324	1.000000	-0.000009	0.000004	-0.000000	0.984508	0.035416	0.139074	0.100735	5.821359	15.468263	12.475653	0.941021	0.208200	-0.266705	-0.188498	0.977196	0.097753	0.280975	-0.041715	0.958808
10202	29230699	-2.580039	0.905022	9.322458	0.017605	-0.041473	-0.086905	-0.011072	0.004162	0.002080				-0.006450	0.002263	0.023306	1.000000	-0.000014	0.000005	0.000003	0.984509	0.035402	0.139073	0.100736	5.819692	15.468225	12.475482	0.941022	0.208197	-0.266704	-0.188504	0.977198	0.097725	0.280969	-0.041687	0.958811
10203	29230724	-2.577477	0.902010	9.390270	0.039348	-0.046629	-0.022861	-0.006093	-0.003248	-0.001642				-0.006444	0.002255	0.023476	1.000000	-0.000008	-0.000004	-0.000002	0.984511	0.035394	0.139062	0.100731	5.818561	15.467186	12.474649	0.941030	0.208185	-0.266686	-0.188497	0.977201	0.097707	0.280947	-0.041676	0.958818
10204	29230749	-2.541711	0.977436	9.455718	0.076952	0.032021	0.037724	-0.009112	-0.002690	0.001161				-0.006354	0.002444	0.023639	1.000000	-0.000011	-0.000003	0.000001	0.984513	0.035383	0.139052	0.100729	5.817111	15.466185	12.474238	0.941036	0.208179	-0.266670	-0.188498	0.977203	0.097683	0.280926	-0.041657	0.958825
10205	29230774	-2.537674	0.963593	9.478271	0.089736	0.018435	0.056923	-0.005324	0.000028	0.005141	-0.076644	0.271101	-1.511720	-0.006344	0.002409	0.023696	1.000000	-0.000007	0.000000	0.000006	0.984514	0.035377	0.139046	0.100732	5.816371	15.465514	12.474457	0.941038	0.208183	-0.266658	-0.188507	0.977203	0.097671	0.280913	-0.041645	0.958829
10206	29230799	-2.625775	0.967845	9.452978	-0.001111	0.005295	0.056579	-0.000668	0.004865	0.003220				-0.006564	0.002420	0.023632	1.000000	-0.000001	0.000006	0.000004	0.984514	0.035376	0.139046	0.100733	5.816242	15.465561	12.474465	0.941038	0.208183	-0.266659	-0.188508	0.977203	0.097669	0.280913	-0.041643	0.958829
10207	29230824	-2.719680	0.879677	9.477892	-0.066092	-0.101267	0.096897	-0.005792	-0.000612	0.001365				-0.006799	0.002199	0.023695	1.000000	-0.000007	-0.000001	0.000002	0.984515	0.035369	0.139039	0.100731	5.815283	15.464853	12.474117	0.941043	0.208178	-0.266647	-0.188508	0.977205	0.097653	0.280898	-0.041631	0.958834
10208	29230849	-2.599628	0.870207	9.422067	0.032680	-0.083184	0.010437	-0.003558	-0.005372	0.000890				-0.006499	0.002176	0.023555	1.000000	-0.000004	-0.000007	0.000001	0.984517	0.035365	0.139027	0.100729	5.814607	15.463474	12.473626	0.941051	0.208171	-0.266624	-0.188505	0.977206	0.097643	0.280873	-0.041627	0.958842
10209	29230874	-2.524987	0.921434	9.341144	0.070589	-0.014215	-0.082061	-0.001912	-0.000955	0.003350	-0.076228	0.272047	-1.512707	-0.006313	0.002304	0.023353	1.000000	-0.000002	-0.000001	0.000004	0.984518	0.035363	0.139020	0.100729	5.814281	15.462689	12.473565	0.941054	0.208171	-0.266611	-0.188507	0.977206	0.097637	0.280859	-0.041624	0.958846
10210	29230899	-2.563732	0.928046	9.412968	0.052794	-0.018786	-0.002216	-0.002702	-0.000964	0.006609				-0.006409	0.002320	0.023532	1.000000	-0.000003	-0.000001	0.000008	0.984519	0.035361	0.139012	0.100733	5.813971	15.461856	12.473986	0.941057	0.208179	-0.266597	-0.188517	0.977205	0.097633	0.280845	-0.041620	0.958850
10211	29230627																																			
10212	29230924	-2.603827	0.942978	9.474178	0.029227	-0.014901	0.068623	-0.007194	-0.001682	0.005126				-0.006510	0.002358	0.023685	1.000000	-0.000009	-0.000002	0.000006	0.984520	0.035353	0.139004	0.100737	5.812956	15.460941	12.474177	0.941060	0.208183	-0.266581	-0.188527	0.977205	0.097616	0.280827	-0.041605	0.958856
10213	29230627																																			
10214	29230949	-2.607797	0.966517	9.431701	0.008819	0.009019	0.031250	-0.003147	-0.005840	0.003466				-0.006520	0.002416	0.023579	1.000000	-0.000004	-0.000007	0.000004	0.984522	0.035350	0.138991	0.100737	5.812438	15.459458	12.474060	0.941067	0.208183	-0.266556	-0.188530	0.977205	0.097608	0.280801	-0.041602	0.958864
10215	29230974	-2.607858	0.987063	9.458364	0.010866	0.027745	0.058704	-0.003769	-0.006203	0.003840	-0.076695	0.273019	-1.512198	-0.006520	0.002468	0.023646	1.000000	-0.000005	-0.000008	0.000005	0.984531	0.035353	0.138950	0.100705	5.811716	15.454979	12.469945	0.941103	0.208120	-0.266481	-0.188470	0.977217	0.097598	0.280722	-0.041626	0.958886
10216	29230999	-2.573293	0.962488	9.403770	0.032402	0.013275	-0.005253	-0.005250	-0.003356	0.007592				-0.006433	0.002406	0.023509	1.000000	-0.000007	-0.000004	0.000009	0.984532	0.035348	0.138940	0.100711	5.811070	15.453790	12.470475	0.941106	0.208129	-0.266461	-0.188485	0.977216	0.097588	0.280701	-0.041617	0.958893
10217	29231024	-2.535980	0.959919	9.355899	0.054254	0.020639	-0.061348	-0.006565	-0.005740	0.004762				-0.006340	0.002400	0.023390	1.000000	-0.000008	-0.000007	0.000006	0.984534	0.035341	0.138926	0.100714	5.810114	15.452303	12.470552	0.941113	0.208132	-0.266436	-0.188493	0.977215	0.097573	0.280673	-0.041605	0.958901
10218	29231049	-2.570603	0.921236	9.402303	0.041613	-0.026237	-0.011399	-0.005829	-0.008413	0.004141				-0.006427	0.002303	0.023506	1.000000	-0.000007	-0.000011	0.000005	0.984536	0.035335	0.138909	0.100716	5.809228	15.450443	12.470496	0.941121	0.208133	-0.266405	-0.188499	0.977216	0.097559	0.280640	-0.041597	0.958911
10219	29231074	-2.576287	0.936078	9.478176	0.054508	-0.016214	0.064328	-0.001064	-0.010709	0.007196	-0.076722	0.273497	-1.512688	-0.006441	0.002340	0.023695	1.000000	-0.000001	-0.000013	0.000009	0.984539	0.035336	0.138890	0.100720	5.809137	15.448212	12.470858	0.941130	0.208141	-0.266367	-0.188510	0.977214	0.097558	0.280604	-0.041602	0.958922
10220	29231099	-2.558299	0.974616	9.475647	0.063213	0.025378	0.060872	-0.002794	-0.003989	0.003596				-0.006396	0.002437	0.023689	1.000000	-0.000003	-0.000005	0.000004	0.984540	0.035334	0.138879	0.100721	5.808682	15.446991	12.470788	0.941136	0.208141	-0.266347	-0.188513	0.977214	0.097551	0.280582	-0.041599	0.958928
10221	29231124	-2.549864	0.996833	9.415870	0.050001	0.051558	0.003471	-0.008899	-0.001723	0.006370				-0.006375	0.002492	0.023540	1.000000	-0.000011	-0.000002	0.000008	0.984541	0.035324	0.138870	0.100726	5.807471	15.446053	12.471163	0.941139	0.208149	-0.266331	-0.188527	0.977213	0.097531	0.280563	-0.041580	0.958935
10222	29231149	-2.716792	0.966391	9.475529	-0.084612	-0.015388	0.102168	-0.003350	0.002907	0.003767				-0.006792	0.002416	0.023689	1.000000	-0.000004	0.000004	0.000005	0.984542	0.035320	0.138868	0.100727	5.806972	15.445812	12.471222	0.941140	0.208150	-0.266327	-0.188531	0.977213	0.097523	0.280558	-0.041572	0.958937
10223	29231174	-2.697539	0.942973	9.474132	-0.062736	-0.034173	0.093421	-0.004825	-0.006497	0.005646	-0.076742	0.272531	-1.513686	-0.006744	0.002358	0.023685	1.000000	-0.000006	-0.000008	0.000007	0.984543	0.035315	0.138853	0.100731	5.806297	15.444204	12.471418	0.941146	0.208155	-0.266300	-0.188540	0.977212	0.097513	0.280529	-0.041565	0.958945
10224	29231199	-2.596673	0.951591	9.375786	0.002278	-0.000759	-0.026907	-0.003697	-0.015025	0.010502				-0.006492	0.002379	0.023439	1.000000	-0.000005	-0.000019	0.000013	0.984546	0.035314	0.138829	0.100739	5.805941	15.441310	12.472203	0.941156	0.208170	-0.266251	-0.188560	0.977209	0.097508	0.280481	-0.041566	0.958959
10225	29231224	-2.529173	0.910378	9.361067	0.069126	-0.026290	-0.063009	-0.004533	-0.010380	0.003842				-0.006323	0.002276	0.023403	1.000000	-0.000006	-0.000013	0.000005	0.984549	0.035310	0.138810	0.100740	5.805221	15.439174	12.472074	0.941167	0.208170	-0.266215	-0.188565	0.977209	0.097497	0.280444	-0.041562	0.958970
10226	29231249	-2.576153	0.959538	9.452984	0.041018	0.008080	0.042437	-0.001533	-0.011405	0.003484				-0.006441	0.002399	0.023632	1.000000	-0.000002	-0.000014	0.000004	0.984552	0.035310	0.138790	0.100740	5.804913	15.436898	12.471876	0.941178	0.208169	-0.266177	-0.188567	0.977209	0.097493	0.280406	-0.041566	0.958981
10227	29231274	-2.649273	0.999314	9.495623	-0.023522	0.029818	0.106671	0.000381	-0.009571	0.007826	-0.077717	0.272543	-1.514663	-0.006623	0.002498	0.023739	1.000000	0.000000	-0.000012	0.000010	0.984554	0.035313	0.138772	0.100745	5.805058	15.434820	12.472348	0.941185	0.208179	-0.266142	-0.188577	0.977207	0.097496	0.280372	-0.041574	0.958991
10228	29231299	-2.657556	0.966310	9.492860	-0.026432	-0.003844	0.103006	-0.008589	-0.010678	0.008889				-0.006644	0.002416	0.023732	1.000000	-0.000011	-0.000013	0.000011	0.984556	0.035305	0.138752	0.100753	5.803955	15.432569	12.472960	0.941193	0.208192	-0.266104	-0.188597	0.977205	0.097479	0.280332	-0.041560	0.959003
10229	29231324	-2.610702	0.916938	9.447492	0.013790	-0.040453	0.042219	-0.005843	-0.012852	0.007658				-0.006527	0.002292	0.023619	1.000000	-0.000007	-0.000016	0.000010	0.984559	0.035300	0.138730	0.100759	5.803188	15.430026	12.473358	0.941203	0.208201	-0.266061	-0.188612	0.977203	0.097467	0.280289	-0.041554	0.959016
10230	29231349	-2.482049	1.015100	9.321530	0.080659	0.087531	-0.103238	-0.006184	-0.011435	0.008729				-0.006205	0.002538	0.023304	1.000000	-0.000008	-0.000014	0.000011	0.984561	0.035295	0.138709	0.100766	5.802420	15.427669	12.473935	0.941212	0.208213	-0.266022	-0.188629	0.977201	0.097455	0.280248	-0.041547	0.959028
10231	29231374	-2.515338	0.921420	9.347812	0.074091	-0.011857	-0.078300	-0.009575	-0.010772	0.006565	-0.080524	0.272117	-1.514631	-0.006289	0.002304	0.023369	1.000000	-0.000012	-0.000013	0.000008	0.984564	0.035286	0.138689	0.100771	5.801084	15.425439	12.474203	0.941221	0.208219	-0.265984	-0.188644	0.977200	0.097434	0.280207	-0.041531	0.959041
10232	29231399	-2.529379	0.867487	9.418121	0.090230	-0.070219	-0.012384	-0.008374	-0.011171	-0.002530				-0.006324	0.002169	0.023545	1.000000	-0.000010	-0.000014	-0.000003	0.984567	0.035276	0.138669	0.100765	5.799561	15.423283	12.473120	0.941235	0.208204	-0.265948	-0.188637	0.977204	0.097410	0.280166	-0.041518	0.959053
10233	29231424	-2.650767	0.952479	9.512747	-0.014017	-0.016436	0.118926	-0.003594	-0.013311	0.002965				-0.006627	0.002381	0.023782	1.000000	-0.000004	-0.000017	0.000004	0.984571	0.035274	0.138646	0.100765	5.798930	15.420742	12.472817	0.941247	0.208201	-0.265905	-0.188639	0.977204	0.097400	0.280123	-0.041518	0.959066
10234	29231449	-2.658910	1.023998	9.514329	-0.035288	0.051938	0.129570	-0.011653	-0.014322	0.006481				-0.006648	0.002560	0.023786	1.000000	-0.000015	-0.000018	0.000008	0.984574	0.035262	0.138621	0.100770	5.797279	15.418007	12.473019	0.941259	0.208207	-0.265859	-0.188655	0.977204	0.097374	0.280073	-0.041498	0.959081
10235	29231474	-2.464100	0.990477	9.281558	0.088952	0.069839	-0.148734	-0.017980	-0.010313	0.002985	-0.079614	0.271613	-1.515637	-0.006161	0.002477	0.023204	1.000000	-0.000022	-0.000013	0.000004	0.984577	0.035241	0.138601	0.100772	5.794600	15.415893	12.472763	0.941270	0.208205	-0.265824	-0.188667	0.977206	0.097330	0.280029	-0.041462	0.959096
10236	29231499	-2.430869	0.964605	9.205675	0.103354	0.054793	-0.232860	-0.012606	-0.010577	0.002339				-0.006077	0.002412	0.023014	1.000000	-0.000016	-0.000013	0.000003	0.984581	0.035227	0.138581	0.100773	5.792664	15.413752	12.472410	0.941281	0.208201	-0.265788	-0.188674	0.977208	0.097299	0.279987	-0.041438	0.959109
10237	29231524	-2.480862	0.895335	9.323802	0.102169	-0.028007	-0.113011	-0.010081	-0.006892	-0.000161				-0.006202	0.002239	0.023309	1.000000	-0.000013	-0.000009	-0.000000	0.984584	0.035216	0.138565	0.100770	5.791007	15.412171	12.471741	0.941290	0.208192	-0.265761	-0.188673	0.977211	0.097272	0.279956	-0.041419	0.959119
10238	29231549	-2.503189	0.888087	9.420855	0.109273	-0.043389	-0.014690	-0.015546	-0.008239	0.001934				-0.006258	0.002221	0.023552	1.000000	-0.000019	-0.000010	0.000002	0.984587	0.035197	0.138548	0.100770	5.788644	15.410368	12.471363	0.941300	0.208188	-0.265731	-0.188681	0.977213	0.097233	0.279918	-0.041387	0.959131
10239	29231574	-2.487848	0.943251	9.387798	0.103883	0.015351	-0.045103	-0.014611	-0.006372	0.003949	-0.079081	0.271132	-1.514163	-0.006220	0.002359	0.023469	1.000000	-0.000018	-0.000008	0.000005	0.984589	0.035181	0.138532	0.100773	5.786502	15.408802	12.471310	0.941307	0.208188	-0.265704	-0.188694	0.977214	0.097198	0.279885	-0.041356	0.959142
10240	29231599	-2.565022	0.995474	9.418512	0.029671	0.049210	0.009935	-0.010961	-0.003234	0.006546				-0.006413	0.002489	0.023546	1.000000	-0.000014	-0.000004	0.000008	0.984591	0.035168	0.138521	0.100779	5.784996	15.407646	12.471688	0.941311	0.208196	-0.265685	-0.188709	0.977213	0.097173	0.279862	-0.041333	0.959150
10241	29231624	-2.598164	1.036532	9.477164	0.007025	0.080321	0.078984	-0.011824	0.000410	0.001200				-0.006495	0.002592	0.023693	1.000000	-0.000015	0.000001	0.000001	0.984592	0.035154	0.138515	0.100779	5.783172	15.407087	12.471331	0.941315	0.208190	-0.265675	-0.188713	0.977216	0.097143	0.279846	-0.041306	0.959156
10242	29231649	-2.564921	1.018971	9.389332	0.016807	0.074264	-0.015803	-0.019816	-0.000358	-0.000061				-0.006412	0.002548	0.023473	1.000000	-0.000025	-0.000000	-0.000000	0.984594	0.035129	0.138506	0.100778	5.780150	15.406436	12.470775	0.941320	0.208182	-0.265664	-0.188719	0.977220	0.097093	0.279825	-0.041259	0.959164
10243	29231674	-2.435060	0.996080	9.254995	0.105683	0.084861	-0.181370	-0.018048	-0.001505	-0.000975	-0.078106	0.271119	-1.513186	-0.006088	0.002491	0.023137	1.000000	-0.000023	-0.000002	-0.000001	0.984597	0.035107	0.138497	0.100776	5.777341	15.405634	12.470068	0.941326	0.208171	-0.265651	-0.188722	0.977224	0.097046	0.279803	-0.041218	0.959172
10244	29231699	-2.469846	0.874786	9.305108	0.109581	-0.042586	-0.135826	-0.016676	0.000069	-0.001416				-0.006175	0.002187	0.023263	1.000000	-0.000021	0.000000	-0.000002	0.984599	0.035086	0.138489	0.100773	5.774718	15.405064	12.469319	0.941331	0.208159	-0.265641	-0.188723	0.977228	0.097002	0.279784	-0.041179	0.959179
10245	29231724	-2.358369	0.807212	9.330233	0.234242	-0.086361	-0.147889	-0.008067	0.001940	0.000986				-0.005896	0.002018	0.023326	1.000000	-0.000010	0.000002	0.000001	0.984600	0.035075	0.138485	0.100771	5.773429	15.404725	12.468953	0.941334	0.208154	-0.265636	-0.188724	0.977230	0.096981	0.279774	-0.041160	0.959183
10246	29231749	-2.711895	0.770486	9.601239	-0.015542	-0.206717	0.202407	-0.008088	0.011730	0.000770				-0.006779	0.001926	0.024003	1.000000	-0.000010	0.000015	0.000001	0.984599	0.035064	0.138493	0.100770	5.772168	15.405785	12.468701	0.941330	0.208148	-0.265653	-0.188724	0.977232	0.096959	0.279787	-0.041135	0.959180
10247	29231774	-2.944944	0.902039	9.763822	-0.214266	-0.133602	0.433019	0.002103	0.001845	0.005993	-0.077617	0.272076	-1.512194	-0.007362	0.002255	0.024410	1.000000	0.000003	0.000002	0.000007	0.984599	0.035067	0.138490	0.100773	5.772533	15.405361	12.469074	0.941331	0.208155	-0.265646	-0.188729	0.977230	0.096966	0.279781	-0.041141	0.959182
10248	29231799	-2.640934	1.015910	9.479732	-0.029717	0.052945	0.090804	-0.010361	-0.008830	0.005484				-0.006603	0.002540	0.023699	1.000000	-0.000013	-0.000011	0.000007	0.984602	0.035056	0.138472	0.100777	5.771050	15.403422	12.469212	0.941339	0.208159	-0.265614	-0.188742	0.977230	0.096942	0.279745	-0.041122	0.959193
10249	29231824	-2.469444	0.994827	9.219060	0.062722	0.078809	-0.206822	-0.004587	-0.001352	0.002138				-0.006174	0.002487	0.023048	1.000000	-0.000006	-0.000002	0.000003	0.984603	0.035050	0.138464	0.100776	5.770292	15.402598	12.468967	0.941344	0.208156	-0.265600	-0.188743	0.977231	0.096929	0.279729	-0.041114	0.959198
10250	29231849	-2.588274	0.940786	9.326552	-0.009100	-0.002995	-0.077394	-0.007640	-0.002386	0.004940				-0.006471	0.002352	0.023316	1.000000	-0.000010	-0.000003	0.000006	0.984604	0.035042	0.138454	0.100780	5.769203	15.401586	12.469121	0.941348	0.208160	-0.265583	-0.188753	0.977231	0.096912	0.279709	-0.041098	0.959205
10251	29231874	-2.737724	0.895973	9.541786	-0.081345	-0.086722	0.164412	-0.006002	-0.006847	0.007457	-0.077625	0.272557	-1.512190	-0.006845	0.002240	0.023854	1.000000	-0.000008	-0.000009	0.000009	0.984606	0.035036	0.138440	0.100785	5.768429	15.399902	12.469580	0.941354	0.208169	-0.265554	-0.188767	0.977229	0.096899	0.279679	-0.041089	0.959214
10252	29231899	-2.702082	0.895691	9.610965	-0.029038	-0.082444	0.221275	-0.004189	-0.013262	0.006160				-0.006756	0.002239	0.024027	1.000000	-0.000005	-0.000017	0.000008	0.984609	0.035034	0.138417	0.100789	5.767839	15.397322	12.469752	0.941365	0.208174	-0.265511	-0.188777	0.977228	0.096891	0.279635	-0.041087	0.959227
10253	29231924	-2.521251	0.891980	9.490025	0.107853	-0.043623	0.056900	0.000681	-0.007759	0.009532				-0.006303	0.002230	0.023725	1.000000	0.000001	-0.000010	0.000012	0.984610	0.035037	0.138402	0.100796	5.768101	15.395478	12.470504	0.941370	0.208188	-0.265480	-0.188792	0.977225	0.096896	0.279606	-0.041095	0.959235
10254	29231949	-2.469779	0.972358	9.336026	0.097920	0.052030	-0.096697	-0.002107	-0.003454	0.005236				-0.006175	0.002431	0.023340	1.000000	-0.000003	-0.000004	0.000007	0.984612	0.035035	0.138391	0.100799	5.767811	15.394310	12.470686	0.941375	0.208193	-0.265460	-0.188798	0.977224	0.096892	0.279586	-0.041093	0.959241
10255	29231974	-2.592506	0.926910	9.354430	-0.003997	-0.018716	-0.050863	-0.002378	-0.004622	0.007930	-0.078088	0.271122	-1.512692	-0.006481	0.002317	0.023386	1.000000	-0.000003	-0.000006	0.000010	0.984613	0.035034	0.138380	0.100805	5.767584	15.392936	12.471248	0.941379	0.208203	-0.265437	-0.188811	0.977222	0.096889	0.279564	-0.041091	0.959247
10256	29231999	-2.628526	0.949986	9.442272	-0.018328	-0.007309	0.045193	-0.003375	-0.012018	0.008805				-0.006572	0.002375	0.023606	1.000000	-0.000004	-0.000015	0.000011	0.984615	0.035033	0.138358	0.100811	5.767220	15.390495	12.471830	0.941388	0.208215	-0.265396	-0.188827	0.977220	0.096884	0.279523	-0.041091	0.959259
10257	29232024	-2.594225	0.978591	9.510216	0.027091	0.024823	0.104041	0.001697	-0.014317	0.003701				-0.006486	0.002446	0.023775	1.000000	0.000002	-0.000018	0.000005	0.984618	0.035037	0.138335	0.100811	5.767372	15.387801	12.471622	0.941401	0.208214	-0.265351	-0.188827	0.977219	0.096887	0.279479	-0.041104	0.959271
10258	29232049	-2.554290	0.941457	9.507458	0.070693	-0.002846	0.087204	-0.005664	-0.006843	0.003012				-0.006386	0.002354	0.023769	1.000000	-0.000007	-0.000009	0.000004	0.984620	0.035031	0.138321	0.100811	5.766472	15.386181	12.471425	0.941409	0.208213	-0.265324	-0.188831	0.977220	0.096873	0.279450	-0.041096	0.959280
10259	29232074	-2.500108	0.950358	9.333274	0.071249	0.024235	-0.093392	-0.001942	-0.005871	0.004677	-0.078574	0.272092	-1.512677	-0.006250	0.002376	0.023333	1.000000	-0.000002	-0.000007	0.000006	0.984622	0.035030	0.138307	0.100813	5.766175	15.384676	12.471488	0.941416	0.208215	-0.265298	-0.188836	0.977219	0.096869	0.279424	-0.041096	0.959288
10260	29232099	-2.560644	0.943643	9.289325	0.002969	0.006847	-0.120142	-0.001581	-0.003424	0.007749				-0.006402	0.002359	0.023223	1.000000	-0.000002	-0.000004	0.000010	0.984623	0.035029	0.138297	0.100819	5.766060	15.383476	12.472042	0.941419	0.208226	-0.265278	-0.188848	0.977217	0.096867	0.279405	-0.041096	0.959294
10261	29232124	-2.606433	0.948618	9.426319	-0.003349	-0.003723	0.023904	0.003484	-0.014019	0.006977				-0.006517	0.002371	0.023566	1.000000	0.000004	-0.000018	0.000009	0.984626	0.035036	0.138275	0.100822	5.766598	15.380777	12.472323	0.941430	0.208233	-0.265233	-0.188854	0.977215	0.096878	0.279362	-0.041113	0.959305
10262	29232149	-2.562434	0.958167	9.459615	0.045233	0.013487	0.045102	-0.002749	-0.010124	0.004166				-0.006406	0.002395	0.023649	1.000000	-0.000003	-0.000013	0.000005	0.984628	0.035035	0.138256	0.100823	5.766148	15.378673	12.472247	0.941440	0.208234	-0.265197	-0.188859	0.977215	0.096871	0.279326	-0.041114	0.959316
10263	29232174	-2.608051	0.942836	9.508757	0.018642	-0.012990	0.102862	-0.003871	-0.010946	0.004157	-0.079518	0.273553	-1.512158	-0.006520	0.002357	0.023772	1.000000	-0.000005	-0.000014	0.000005	0.984631	0.035032	0.138237	0.100824	5.765534	15.376452	12.472157	0.941450	0.208235	-0.265160	-0.188864	0.977215	0.096862	0.279288	-0.041112	0.959327
10264	29232199	-2.555450	0.996736	9.446464	0.040192	0.053077	0.034378	0.001335	-0.009216	0.001565				-0.006389	0.002492	0.023616	1.000000	0.000002	-0.000012	0.000002	0.984633	0.035035	0.138220	0.100821	5.765571	15.374515	12.471710	0.941461	0.208229	-0.265127	-0.188859	0.977215	0.096863	0.279256	-0.041121	0.959336
10265	29232224	-2.546805	1.013758	9.308193	0.006040	0.077386	-0.098915	-0.006692	-0.011690	0.000937				-0.006367	0.002535	0.023270	1.000000	-0.000008	-0.000015	0.000001	0.984637	0.035028	0.138199	0.100819	5.764424	15.372235	12.471134	0.941473	0.208222	-0.265089	-0.188859	0.977217	0.096845	0.279215	-0.041113	0.959348
10266	29232249	-2.607813	0.919834	9.406271	-0.006768	-0.031178	0.002253	-0.003278	-0.014281	0.001840				-0.006520	0.002300	0.023516	1.000000	-0.000004	-0.000018	0.000002	0.984640	0.035025	0.138176	0.100817	5.763791	15.369572	12.470652	0.941487	0.208217	-0.265044	-0.188858	0.977218	0.096836	0.279169	-0.041114	0.959361
10267	29232274	-2.609449	0.882348	9.489942	0.021759	-0.071523	0.079338	-0.005597	-0.014830	0.002766	-0.078645	0.273044	-1.514152	-0.006524	0.002206	0.023725	1.000000	-0.000007	-0.000019	0.000003	0.984644	0.035021	0.138151	0.100817	5.762860	15.366818	12.470299	0.941501	0.208214	-0.264998	-0.188861	0.977219	0.096822	0.279120	-0.041110	0.959376
10268	29232299	-2.609454	0.902974	9.496659	0.019020	-0.051547	0.087781	-0.007881	-0.017263	0.004885				-0.006524	0.002258	0.023741	1.000000	-0.000010	-0.000022	0.000006	0.984648	0.035014	0.138123	0.100819	5.761675	15.363686	12.470223	0.941515	0.208216	-0.264945	-0.188871	0.977219	0.096803	0.279065	-0.041101	0.959392
10269	29232324	-2.567870	0.959667	9.425043	0.026966	0.015406	0.013546	-0.004961	-0.016330	0.007859				-0.006420	0.002399	0.023562	1.000000	-0.000006	-0.000020	0.000010	0.984651	0.035011	0.138096	0.100825	5.761029	15.360645	12.470600	0.941527	0.208225	-0.264894	-0.188885	0.977217	0.096794	0.279014	-0.041099	0.959407
10270	29232349	-2.517820	1.011051	9.290901	0.026595	0.081655	-0.123435	-0.006343	-0.011691	0.004897				-0.006295	0.002528	0.023227	1.000000	-0.000008	-0.000015	0.000006	0.984654	0.035005	0.138076	0.100828	5.760087	15.358307	12.470609	0.941538	0.208227	-0.264855	-0.188894	0.977217	0.096779	0.278972	-0.041092	0.959420
10271	29232374	-2.530234	1.001491	9.284213	0.014503	0.070068	-0.127484	-0.006759	-0.013402	0.004765	-0.078180	0.271109	-1.515164	-0.006326	0.002504	0.023210	1.000000	-0.000008	-0.000017	0.000006	0.984657	0.034999	0.138053	0.100830	5.759074	15.355728	12.470573	0.941550	0.208229	-0.264811	-0.188903	0.977217	0.096763	0.278927	-0.041084	0.959433
10272	29232399	-2.509795	0.965397	9.354609	0.059597	0.036219	-0.068845	-0.007905	-0.013885	0.009908				-0.006275	0.002414	0.023386	1.000000	-0.000010	-0.000017	0.000012	0.984660	0.034992	0.138029	0.100839	5.758095	15.353006	12.471290	0.941559	0.208244	-0.264765	-0.188924	0.977214	0.096748	0.278880	-0.041074	0.959447
10273	29232424	-2.453356	0.940550	9.371852	0.121959	0.023144	-0.069643	-0.008173	-0.008334	0.004378				-0.006134	0.002352	0.023430	1.000000	-0.000010	-0.000010	0.000005	0.984662	0.034984	0.138012	0.100841	5.756884	15.351154	12.471272	0.941568	0.208245	-0.264734	-0.188933	0.977214	0.096729	0.278845	-0.041060	0.959458
10274	29232449	-2.465610	1.035545	9.362850	0.089496	0.114182	-0.065849	-0.015326	-0.010215	0.001310				-0.006164	0.002589	0.023407	1.000000	-0.000019	-0.000013	0.000002	0.984666	0.034966	0.137992	0.100841	5.754521	15.349078	12.470773	0.941579	0.208239	-0.264699	-0.188939	0.977217	0.096690	0.278803	-0.041029	0.959471
10275	29232474	-2.421656	0.939219	9.365208	0.149735	0.029475	-0.084521	-0.015597	-0.002241	0.000863	-0.078684	0.272076	-1.515644	-0.006054	0.002348	0.023413	1.000000	-0.000019	-0.000003	0.000001	0.984668	0.034947	0.137981	0.100840	5.752133	15.348145	12.470327	0.941585	0.208233	-0.264683	-0.188945	0.977220	0.096651	0.278780	-0.040994	0.959480
10276	29232499	-2.445004	0.910490	9.318548	0.119972	-0.001241	-0.125885	-0.014623	0.001746	0.004636				-0.006112	0.002277	0.023296	1.000000	-0.000018	0.000002	0.000006	0.984669	0.034929	0.137976	0.100845	5.750048	15.347727	12.470498	0.941586	0.208236	-0.264676	-0.188958	0.977221	0.096616	0.278766	-0.040959	0.959485
10277	29232524	-2.543083	0.945891	9.430335	0.051868	0.008868	0.010752	-0.020367	0.000736	0.004581				-0.006358	0.002365	0.023576	1.000000	-0.000025	0.000001	0.000006	0.984670	0.034905	0.137969	0.100850	5.747134	15.347165	12.470646	0.941588	0.208239	-0.264667	-0.188976	0.977222	0.096567	0.278747	-0.040911	0.959493
10278	29232549	-2.628628	0.975933	9.495566	-0.016324	0.018055	0.098881	-0.015195	0.000921	0.001104				-0.006572	0.002440	0.023739	1.000000	-0.000019	0.000001	0.000001	0.984672	0.034886	0.137962	0.100850	5.744826	15.346679	12.470282	0.941591	0.208233	-0.264659	-0.188982	0.977225	0.096529	0.278732	-0.040875	0.959499
10279	29232574	-2.542968	0.958358	9.401119	0.041210	0.022904	-0.016103	-0.014783	-0.001943	-0.000015	-0.080972	0.273092	-1.513628	-0.006357	0.002396	0.023503	1.000000	-0.000018	-0.000002	-0.000000	0.984674	0.034867	0.137953	0.100848	5.742521	15.345801	12.469711	0.941598	0.208225	-0.264644	-0.188985	0.977228	0.096491	0.278709	-0.040842	0.959507
10280	29232599	-2.598301	0.916881	9.464796	0.014336	-0.031360	0.055640	-0.016470	-0.002113	0.001352				-0.006496	0.002293	0.023662	1.000000	-0.000021	-0.000003	0.000002	0.984676	0.034847	0.137942	0.100848	5.740028	15.344879	12.469339	0.941603	0.208220	-0.264629	-0.188992	0.977231	0.096449	0.278686	-0.040804	0.959515
10281	29232624	-2.523771	0.918433	9.414298	0.069807	-0.012232	-0.012384	-0.007534	-0.006820	0.000548				-0.006310	0.002296	0.023536	1.000000	-0.000009	-0.000009	0.000001	0.984679	0.034839	0.137928	0.100846	5.738765	15.343298	12.468778	0.941612	0.208212	-0.264602	-0.188991	0.977233	0.096429	0.278655	-0.040791	0.959525
10282	29232649	-2.508591	0.885545	9.370295	0.078070	-0.038995	-0.061792	-0.013606	0.003523	0.000992				-0.006271	0.002214	0.023426	1.000000	-0.000017	0.000004	0.000001	0.984680	0.034822	0.137925	0.100846	5.736690	15.343185	12.468437	0.941614	0.208207	-0.264600	-0.188996	0.977235	0.096394	0.278646	-0.040758	0.959529
10283	29232674	-2.613545	0.865963	9.455298	0.006583	-0.083262	0.045661	-0.010121	0.000155	0.000894	-0.080909	0.272619	-1.512148	-0.006534	0.002165	0.023638	1.000000	-0.000013	0.000000	0.000001	0.984681	0.034809	0.137918	0.100844	5.735097	15.342593	12.468031	0.941618	0.208201	-0.264590	-0.188997	0.977238	0.096368	0.278631	-0.040735	0.959534
10284	29232699	-2.609343	0.926431	9.479457	0.005574	-0.024017	0.073558	-0.010991	0.000298	0.002086				-0.006523	0.002316	0.023699	1.000000	-0.000014	0.000000	0.000003	0.984683	0.034795	0.137911	0.100845	5.733427	15.342004	12.467804	0.941622	0.208197	-0.264580	-0.189003	0.977239	0.096340	0.278616	-0.040710	0.959539
10285	29232724	-2.627381	0.898802	9.512603	0.002793	-0.056123	0.107474	-0.005265	-0.003406	0.004579				-0.006569	0.002247	0.023781	1.000000	-0.000007	-0.000004	0.000006	0.984684	0.034790	0.137901	0.100847	5.732660	15.340852	12.467889	0.941626	0.208200	-0.264561	-0.189010	0.977239	0.096328	0.278595	-0.040700	0.959546
10286	29232749	-2.543127	0.918317	9.442220	0.058789	-0.016367	0.019529	-0.008881	0.002122	0.001223				-0.006358	0.002296	0.023606	1.000000	-0.000011	0.000003	0.000002	0.984685	0.034779	0.137897	0.100846	5.731265	15.340536	12.467562	0.941629	0.208195	-0.264555	-0.189011	0.977241	0.096305	0.278585	-0.040679	0.959550
10287	29232774	-2.509874	0.921365	9.363775	0.067874	-0.003203	-0.064243	-0.004379	0.005804	0.001884	-0.079530	0.272107	-1.513160	-0.006275	0.002304	0.023409	1.000000	-0.000005	0.000007	0.000002	0.984685	0.034773	0.137898	0.100845	5.730555	15.340735	12.467386	0.941629	0.208192	-0.264559	-0.189012	0.977242	0.096293	0.278585	-0.040667	0.959550
10288	29232799	-2.529210	0.929494	9.397044	0.057210	-0.000452	-0.026421	-0.006866	0.003864	0.003372				-0.006323	0.002324	0.023493	1.000000	-0.000009	0.000005	0.000004	0.984686	0.034764	0.137896	0.100847	5.729540	15.340636	12.467401	0.941629	0.208192	-0.264557	-0.189017	0.977243	0.096276	0.278580	-0.040650	0.959552
10289	29232824	-2.579031	0.914099	9.463467	0.031523	-0.028437	0.049015	-0.007847	0.000505	0.007318				-0.006448	0.002285	0.023659	1.000000	-0.000010	0.000001	0.000009	0.984686	0.034755	0.137890	0.100853	5.728526	15.340002	12.467950	0.941630	0.208202	-0.264546	-0.189032	0.977242	0.096259	0.278567	-0.040633	0.959557
10290	29232849	-2.605414	0.897370	9.529892	0.028157	-0.053034	0.118123	-0.001621	-0.002220	0.003542				-0.006514	0.002243	0.023825	1.000000	-0.000002	-0.000003	0.000004	0.984688	0.034754	0.137881	0.100853	5.728245	15.339034	12.467900	0.941635	0.208202	-0.264530	-0.189034	0.977242	0.096255	0.278550	-0.040632	0.959562
10291	29232874	-2.499102	0.896237	9.446163	0.105156	-0.028499	0.009559	-0.004497	-0.000677	0.004709	-0.080073	0.272105	-1.515132	-0.006248	0.002241	0.023615	1.000000	-0.000006	-0.000001	0.000006	0.984688	0.034749	0.137874	0.100856	5.727603	15.338269	12.468046	0.941638	0.208205	-0.264517	-0.189041	0.977241	0.096244	0.278536	-0.040623	0.959566
10292	29232899	-2.467188	0.882872	9.354356	0.112139	-0.031237	-0.088265	0.000909	0.004612	0.002867				-0.006168	0.002207	0.023386	1.000000	0.000001	0.000006	0.000004	0.984688	0.034750	0.137874	0.100855	5.727685	15.338284	12.467998	0.941638	0.208204	-0.264517	-0.189040	0.977241	0.096246	0.278536	-0.040624	0.959566
10293	29232924	-2.581652	0.919813	9.407617	0.012084	-0.021182	-0.003324	-0.000624	0.001608	0.009760				-0.006454	0.002299	0.023519	1.000000	-0.000001	0.000002	0.000012	0.984688	0.034750	0.137870	0.100863	5.727805	15.337772	12.468924	0.941637	0.208220	-0.264509	-0.189056	0.977238	0.096248	0.278529	-0.040624	0.959568
10294	29232949	-2.605155	0.958140	9.466262	-0.000969	0.008988	0.062855	-0.001405	0.003847	0.010943				-0.006513	0.002395	0.023666	1.000000	-0.000002	0.000005	0.000014	0.984687	0.034749	0.137869	0.100873	5.727868	15.337563	12.470059	0.941633	0.208239	-0.264505	-0.189075	0.977234	0.096249	0.278526	-0.040620	0.959569
10295	29232974	-2.583056	0.980181	9.461010	0.014204	0.035358	0.054096	-0.001834	0.000681	0.006734	-0.080081	0.272585	-1.515128	-0.006458	0.002450	0.023653	1.000000	-0.000002	0.000001	0.000008	0.984688	0.034748	0.137864	0.100878	5.727693	15.336962	12.470524	0.941634	0.208247	-0.264495	-0.189085	0.977233	0.096246	0.278516	-0.040617	0.959572
10296	29232999	-2.576209	0.930720	9.446234	0.025782	-0.011061	0.033346	0.002617	0.002612	0.004947				-0.006440	0.002327	0.023616	1.000000	0.000003	0.000003	0.000006	0.984688	0.034751	0.137862	0.100879	5.728092	15.336662	12.470753	0.941635	0.208251	-0.264490	-0.189088	0.977231	0.096253	0.278513	-0.040624	0.959573
10297	29233024	-2.595563	0.916857	9.460807	0.014202	-0.029311	0.051115	0.001261	0.003132	0.010343				-0.006489	0.002292	0.023652	1.000000	0.000002	0.000004	0.000013	0.984687	0.034754	0.137860	0.100888	5.728511	15.336360	12.471788	0.941633	0.208269	-0.264485	-0.189104	0.977228	0.096260	0.278510	-0.040627	0.959574
10298	29233049	-2.573278	0.950170	9.386439	0.008167	0.011072	-0.022934	-0.003764	0.004698	0.004458				-0.006433	0.002375	0.023466	1.000000	-0.000005	0.000006	0.000006	0.984687	0.034749	0.137859	0.100890	5.727986	15.336364	12.471977	0.941632	0.208272	-0.264485	-0.189110	0.977227	0.096252	0.278509	-0.040617	0.959574
10299	29233074	-2.559485	0.913056	9.370376	0.023742	-0.021667	-0.045545	-0.001398	0.001931	0.002101	-0.078653	0.273525	-1.514148	-0.006399	0.002283	0.023426	1.000000	-0.000002	0.000002	0.000003	0.984688	0.034747	0.137856	0.100889	5.727697	15.336008	12.471777	0.941634	0.208269	-0.264479	-0.189108	0.977228	0.096247	0.278502	-0.040614	0.959577
10300	29233099	-2.543092	0.926616	9.426287	0.051920	-0.007288	0.005077	-0.002123	-0.000109	0.008689				-0.006358	0.002317	0.023566	1.000000	-0.000003	-0.000000	0.000011	0.984688	0.034746	0.137850	0.100896	5.727553	15.335267	12.472519	0.941635	0.208282	-0.264467	-0.189123	0.977225	0.096245	0.278490	-0.040611	0.959580
10301	29233124	-2.559667	0.955394	9.456961	0.039216	0.016246	0.041665	-0.005031	-0.001407	0.006527				-0.006399	0.002389	0.023642	1.000000	-0.000006	-0.000002	0.000008	0.984689	0.034741	0.137842	0.100901	5.726904	15.334372	12.472923	0.941637	0.208289	-0.264452	-0.189134	0.977224	0.096234	0.278473	-0.040601	0.959585
10302	29233149	-2.565146	0.970558	9.460996	0.032211	0.029862	0.048445	-0.005876	0.000834	0.008093				-0.006413	0.002427	0.023652	1.000000	-0.000007	0.000001	0.000010	0.984689	0.034735	0.137836	0.100908	5.726203	15.333774	12.473591	0.941638	0.208301	-0.264442	-0.189150	0.977222	0.096223	0.278462	-0.040588	0.959589
10303	29233174	-2.585802	0.965113	9.438347	0.007411	0.021167	0.031653	-0.003077	-0.002337	0.004093	-0.079537	0.273551	-1.512652	-0.006465	0.002413	0.023596	1.000000	-0.000004	-0.000003	0.000005	0.984690	0.034732	0.137827	0.100909	5.725735	15.332781	12.473621	0.941642	0.208302	-0.264425	-0.189154	0.977222	0.096216	0.278444	-0.040584	0.959595
10304	29233199	-2.623034	0.947199	9.448919	-0.021499	-0.004320	0.049919	-0.005142	0.000860	-0.002080				-0.006558	0.002368	0.023622	1.000000	-0.000006	0.000001	-0.000003	0.984692	0.034724	0.137822	0.100903	5.724742	15.332332	12.472787	0.941647	0.208289	-0.264417	-0.189146	0.977225	0.096199	0.278433	-0.040572	0.959598
10305	29233224	-2.642460	0.925013	9.492733	-0.023637	-0.031774	0.094965	-0.004785	-0.002542	0.003511				-0.006606	0.002313	0.023732	1.000000	-0.000006	-0.000003	0.000004	0.984693	0.034719	0.137813	0.100904	5.724005	15.331318	12.472728	0.941652	0.208289	-0.264400	-0.189150	0.977226	0.096187	0.278413	-0.040564	0.959604
10306	29233249	-2.544435	0.932177	9.410344	0.043907	-0.000802	-0.009321	-0.010371	-0.008959	0.005174				-0.006361	0.002331	0.023526	1.000000	-0.000013	-0.000011	0.000006	0.984696	0.034708	0.137795	0.100908	5.722508	15.329366	12.472819	0.941660	0.208292	-0.264367	-0.189162	0.977226	0.096163	0.278377	-0.040545	0.959616
10307	29233274	-2.551256	0.910330	9.370350	0.030300	-0.021841	-0.047984	-0.007938	-0.007983	0.003120	-0.080059	0.274515	-1.513626	-0.006378	0.002276	0.023426	1.000000	-0.000010	-0.000010	0.000004	0.984698	0.034700	0.137778	0.100909	5.721283	15.327582	12.472623	0.941669	0.208291	-0.264337	-0.189168	0.977227	0.096143	0.278343	-0.040531	0.959626
10308	29233299	-2.599582	0.947227	9.438294	-0.003704	0.001679	0.033538	-0.011700	-0.006591	0.002711				-0.006499	0.002368	0.023596	1.000000	-0.000015	-0.000008	0.000003	0.984701	0.034686	0.137763	0.100910	5.719509	15.326003	12.472386	0.941677	0.208289	-0.264311	-0.189175	0.977228	0.096114	0.278311	-0.040508	0.959636
10309	29233324	-2.541614	0.992712	9.419853	0.036671	0.059128	0.004893	-0.012171	-0.010455	0.006481				-0.006354	0.002482	0.023550	1.000000	-0.000015	-0.000013	0.000008	0.984703	0.034673	0.137743	0.100915	5.717799	15.323819	12.472649	0.941686	0.208295	-0.264274	-0.189191	0.977228	0.096087	0.278270	-0.040485	0.959649
10310	29233349	-2.508441	0.985961	9.378617	0.057433	0.061288	-0.044094	-0.011031	-0.006649	0.006801				-0.006271	0.002465	0.023446	1.000000	-0.000014	-0.000008	0.000009	0.984705	0.034662	0.137728	0.100921	5.716280	15.322173	12.473016	0.941692	0.208303	-0.264246	-0.189207	0.977227	0.096062	0.278239	-0.040464	0.959659
10311	29233374	-2.534677	0.941934	9.382454	0.042039	0.013002	-0.037704	-0.015534	-0.002714	0.007325	-0.080942	0.274541	-1.512131	-0.006337	0.002355	0.023456	1.000000	-0.000019	-0.000003	0.000009	0.984707	0.034644	0.137717	0.100929	5.714152	15.321080	12.473518	0.941695	0.208312	-0.264228	-0.189228	0.977226	0.096027	0.278214	-0.040429	0.959668
10312	29233399	-2.555358	0.959775	9.395794	0.022582	0.025830	-0.017724	-0.011411	-0.002585	0.000009				-0.006388	0.002400	0.023489	1.000000	-0.000014	-0.000003	0.000000	0.984709	0.034630	0.137707	0.100926	5.712329	15.320110	12.472941	0.941702	0.208304	-0.264212	-0.189229	0.977229	0.095997	0.278192	-0.040404	0.959675
10313	29233127																																			
10314	29233424	-2.558293	0.932015	9.450235	0.039903	-0.003680	0.032634	-0.016521	-0.003846	-0.000155				-0.006396	0.002331	0.023626	1.000000	-0.000021	-0.000005	-0.000000	0.984711	0.034610	0.137694	0.100925	5.709764	15.318963	12.472322	0.941709	0.208295	-0.264192	-0.189232	0.977233	0.095954	0.278164	-0.040367	0.959685
10315	29233127																																			
10316	29233449	-2.578932	0.926631	9.427583	0.014967	-0.012117	0.015831	-0.011909	-0.003012	0.000697				-0.006447	0.002317	0.023569	1.000000	-0.000015	-0.000004	0.000001	0.984714	0.034595	0.137684	0.100923	5.707895	15.317922	12.471840	0.941715	0.208288	-0.264175	-0.189235	0.977235	0.095924	0.278141	-0.040342	0.959693
10317	29233474	-2.469925	0.933666	9.375808	0.100569	0.019631	-0.062082	-0.018238	-0.003774	-0.000039	-0.081401	0.275033	-1.511626	-0.006175	0.002335	0.023439	1.000000	-0.000023	-0.000005	-0.000000	0.984729	0.034591	0.137646	0.100828	5.705313	15.314227	12.460135	0.941775	0.208099	-0.264113	-0.189054	0.977274	0.095882	0.278063	-0.040368	0.959714
10318	29233499	-2.578574	0.989001	9.317392	-0.028926	0.053882	-0.084149	-0.017859	-0.006121	-0.004119				-0.006447	0.002473	0.023293	1.000000	-0.000022	-0.000008	-0.000005	0.984732	0.034569	0.137631	0.100822	5.702392	15.312811	12.458896	0.941785	0.208080	-0.264089	-0.189049	0.977280	0.095834	0.278030	-0.040329	0.959725
10319	29233524	-2.668587	1.000629	9.507602	-0.063491	0.039164	0.123282	-0.017966	-0.009216	0.004543				-0.006672	0.002502	0.023769	1.000000	-0.000022	-0.000012	0.000006	0.984735	0.034548	0.137612	0.100826	5.699781	15.310831	12.458891	0.941794	0.208082	-0.264055	-0.189065	0.977281	0.095791	0.277989	-0.040292	0.959739
10320	29233549	-2.586246	0.836740	9.543002	0.054336	-0.104878	0.119828	-0.020027	-0.012141	0.003277				-0.006466	0.002092	0.023857	1.000000	-0.000025	-0.000015	0.000004	0.984739	0.034525	0.137589	0.100829	5.696815	15.308453	12.458657	0.941806	0.208080	-0.264015	-0.189079	0.977283	0.095742	0.277940	-0.040251	0.959755
10321	29233574	-2.519669	0.852452	9.388814	0.071066	-0.069248	-0.044220	-0.013906	-0.007796	0.002196	-0.081852	0.275044	-1.511126	-0.006299	0.002132	0.023472	1.000000	-0.000017	-0.000010	0.000003	0.984742	0.034509	0.137572	0.100829	5.694701	15.306708	12.458327	0.941815	0.208077	-0.263986	-0.189087	0.977285	0.095708	0.277904	-0.040223	0.959766
10322	29233599	-2.519605	0.895094	9.390287	0.063066	-0.027347	-0.038740	-0.013550	-0.006010	0.003015				-0.006299	0.002238	0.023476	1.000000	-0.000017	-0.000008	0.000004	0.984744	0.034493	0.137557	0.100831	5.692676	15.305207	12.458144	0.941822	0.208075	-0.263961	-0.189096	0.977287	0.095675	0.277873	-0.040194	0.959777
10323	29233624	-2.549785	0.944759	9.361166	0.016656	0.016512	-0.053973	-0.019309	-0.009853	0.003912				-0.006375	0.002362	0.023403	1.000000	-0.000024	-0.000012	0.000005	0.984748	0.034471	0.137537	0.100835	5.689846	15.303146	12.458037	0.941832	0.208076	-0.263926	-0.189111	0.977288	0.095628	0.277830	-0.040154	0.959791
10324	29233649	-2.546997	1.006631	9.377331	0.011755	0.077176	-0.033280	-0.016226	-0.006771	0.006758				-0.006368	0.002517	0.023443	1.000000	-0.000020	-0.000008	0.000008	0.984750	0.034453	0.137521	0.100841	5.687581	15.301483	12.458396	0.941838	0.208083	-0.263898	-0.189131	0.977288	0.095591	0.277795	-0.040120	0.959802
10325	29233674	-2.439500	0.988785	9.357385	0.110599	0.083385	-0.082484	-0.020321	-0.006694	0.002903	-0.081420	0.275030	-1.512121	-0.006099	0.002473	0.023393	1.000000	-0.000025	-0.000008	0.000004	0.984753	0.034429	0.137504	0.100844	5.684579	15.299886	12.458188	0.941846	0.208081	-0.263871	-0.189145	0.977290	0.095541	0.277759	-0.040075	0.959815
10326	29233699	-2.453394	0.947424	9.378521	0.111049	0.039665	-0.062482	-0.019442	0.002137	0.004968				-0.006133	0.002369	0.023446	1.000000	-0.000024	0.000003	0.000006	0.984754	0.034406	0.137499	0.100850	5.681819	15.299518	12.458414	0.941847	0.208085	-0.263865	-0.189163	0.977291	0.095495	0.277744	-0.040029	0.959821
10327	29233724	-2.587344	0.926406	9.495420	0.021264	-0.012993	0.083059	-0.019205	0.004746	0.006220				-0.006468	0.002317	0.023739	1.000000	-0.000024	0.000006	0.000008	0.984754	0.034382	0.137496	0.100857	5.679151	15.299504	12.458863	0.941845	0.208093	-0.263865	-0.189183	0.977292	0.095451	0.277735	-0.039981	0.959825
10328	29233749	-2.652178	0.868651	9.483215	-0.032583	-0.081999	0.082942	-0.020324	-0.001226	0.005144				-0.006630	0.002172	0.023708	1.000000	-0.000025	-0.000002	0.000006	0.984756	0.034358	0.137486	0.100862	5.676257	15.298655	12.459066	0.941849	0.208097	-0.263850	-0.189202	0.977293	0.095402	0.277712	-0.039934	0.959834
10329	29233774	-2.642589	0.828726	9.480437	-0.016948	-0.118521	0.073947	-0.019461	-0.003633	0.005092	-0.082366	0.275528	-1.512105	-0.006607	0.002072	0.023701	1.000000	-0.000024	-0.000005	0.000006	0.984758	0.034335	0.137474	0.100868	5.673476	15.297463	12.459225	0.941853	0.208101	-0.263830	-0.189220	0.977294	0.095356	0.277683	-0.039890	0.959844
10330	29233799	-2.594290	0.867271	9.481928	0.020979	-0.070588	0.066313	-0.017163	-0.011732	0.005558				-0.006486	0.002169	0.023705	1.000000	-0.000021	-0.000015	0.000007	0.984761	0.034316	0.137452	0.100873	5.671011	15.295110	12.459335	0.941863	0.208105	-0.263791	-0.189238	0.977294	0.095316	0.277637	-0.039856	0.959859
10331	29233824	-2.566622	0.926461	9.474153	0.033206	-0.006568	0.057194	-0.011934	-0.012466	0.007424				-0.006417	0.002316	0.023685	1.000000	-0.000015	-0.000016	0.000009	0.984764	0.034304	0.137429	0.100879	5.669364	15.292626	12.459710	0.941873	0.208114	-0.263749	-0.189256	0.977293	0.095290	0.277591	-0.039835	0.959873
10332	29233849	-2.562406	0.932081	9.439595	0.026034	0.001370	0.023448	-0.012504	-0.012717	0.007546				-0.006406	0.002331	0.023599	1.000000	-0.000016	-0.000016	0.000009	0.984767	0.034291	0.137406	0.100886	5.667640	15.290105	12.460099	0.941883	0.208122	-0.263706	-0.189275	0.977292	0.095262	0.277544	-0.039813	0.959888
10333	29233874	-2.595427	0.932184	9.412972	-0.012804	-0.003957	0.006618	-0.017305	-0.011490	0.004806	-0.082383	0.276489	-1.512096	-0.006489	0.002331	0.023532	1.000000	-0.000022	-0.000014	0.000006	0.984770	0.034272	0.137384	0.100891	5.665127	15.287797	12.460101	0.941894	0.208125	-0.263668	-0.189291	0.977293	0.095221	0.277498	-0.039778	0.959902
10334	29233899	-2.585889	0.897718	9.432807	0.007614	-0.036258	0.019863	-0.014222	-0.012337	0.007655				-0.006465	0.002245	0.023582	1.000000	-0.000018	-0.000015	0.000010	0.984773	0.034257	0.137361	0.100898	5.663162	15.285328	12.460512	0.941903	0.208134	-0.263626	-0.189312	0.977292	0.095189	0.277452	-0.039751	0.959917
10335	29233924	-2.649453	0.894657	9.507251	-0.031610	-0.055240	0.107787	-0.013730	-0.015137	0.006905				-0.006624	0.002237	0.023768	1.000000	-0.000017	-0.000019	0.000009	0.984777	0.034243	0.137335	0.100904	5.661228	15.282471	12.460772	0.941915	0.208141	-0.263578	-0.189330	0.977292	0.095158	0.277399	-0.039728	0.959933
10336	29233949	-2.619095	0.929068	9.515366	-0.007949	-0.015581	0.110849	-0.010033	-0.019099	0.008760				-0.006548	0.002323	0.023788	1.000000	-0.000013	-0.000024	0.000011	0.984780	0.034234	0.137304	0.100912	5.659881	15.279023	12.461247	0.941929	0.208152	-0.263520	-0.189350	0.977290	0.095137	0.277338	-0.039715	0.959951
10337	29233974	-2.584641	0.912532	9.511345	0.026063	-0.024310	0.096345	-0.008999	-0.018720	0.004500	-0.081977	0.276953	-1.513581	-0.006462	0.002282	0.023778	1.000000	-0.000011	-0.000023	0.000006	0.984785	0.034226	0.137274	0.100914	5.658517	15.275689	12.461099	0.941944	0.208153	-0.263464	-0.189360	0.977290	0.095116	0.277279	-0.039704	0.959969
10338	29233999	-2.567918	0.901883	9.422204	0.018319	-0.027377	0.005356	-0.015457	-0.019732	0.004326				-0.006420	0.002255	0.023555	1.000000	-0.000019	-0.000025	0.000005	0.984789	0.034210	0.137242	0.100917	5.656217	15.272213	12.460910	0.941961	0.208154	-0.263405	-0.189373	0.977291	0.095079	0.277215	-0.039678	0.959988
10339	29234024	-2.525089	0.891043	9.376957	0.047636	-0.027111	-0.050389	-0.013816	-0.016472	0.010115				-0.006313	0.002228	0.023442	1.000000	-0.000017	-0.000021	0.000013	0.984793	0.034196	0.137215	0.100927	5.654391	15.269121	12.461624	0.941972	0.208168	-0.263353	-0.189399	0.977289	0.095050	0.277158	-0.039655	0.960006
10340	29234049	-2.512703	0.888305	9.378295	0.059469	-0.026939	-0.052621	-0.016977	-0.020108	0.004317				-0.006282	0.002221	0.023446	1.000000	-0.000021	-0.000025	0.000005	0.984797	0.034178	0.137182	0.100930	5.651872	15.265591	12.461429	0.941988	0.208169	-0.263294	-0.189414	0.977290	0.095009	0.277092	-0.039626	0.960026
10341	29234074	-2.657165	1.057564	9.372115	-0.111022	0.108741	-0.004457	-0.014019	-0.023195	0.009733	-0.082456	0.276478	-1.514074	-0.006644	0.002644	0.023430	1.000000	-0.000018	-0.000029	0.000012	0.984802	0.034165	0.137146	0.100939	5.649976	15.261546	12.461988	0.942005	0.208182	-0.263226	-0.189439	0.977288	0.094979	0.277020	-0.039605	0.960048
10342	29234099	-2.582122	0.891609	9.596408	0.052246	-0.046508	0.175372	-0.015411	-0.026359	0.009604				-0.006456	0.002229	0.023991	1.000000	-0.000019	-0.000033	0.000012	0.984807	0.034151	0.137105	0.100949	5.647863	15.257051	12.462482	0.942023	0.208194	-0.263150	-0.189465	0.977286	0.094946	0.276940	-0.039583	0.960072
10343	29234124	-2.529346	0.885387	9.408863	0.050499	-0.033939	-0.019159	-0.016318	-0.023082	0.008468				-0.006324	0.002214	0.023522	1.000000	-0.000020	-0.000029	0.000011	0.984812	0.034135	0.137069	0.100957	5.645588	15.253039	12.462857	0.942040	0.208205	-0.263082	-0.189489	0.977285	0.094909	0.276867	-0.039557	0.960094
10344	29234149	-2.486388	0.953026	9.354571	0.062416	0.043429	-0.076163	-0.014074	-0.022559	0.005475				-0.006217	0.002383	0.023386	1.000000	-0.000018	-0.000028	0.000007	0.984817	0.034121	0.137034	0.100961	5.643521	15.249144	12.462798	0.942057	0.208207	-0.263017	-0.189504	0.977285	0.094876	0.276796	-0.039536	0.960115
10345	29234174	-2.541582	0.899354	9.355704	0.020357	-0.020171	-0.065645	-0.020301	-0.020295	0.008245	-0.082338	0.276014	-1.511111	-0.006355	0.002249	0.023389	1.000000	-0.000025	-0.000025	0.000010	0.984821	0.034100	0.137001	0.100970	5.640678	15.245533	12.463181	0.942072	0.208217	-0.262956	-0.189530	0.977285	0.094830	0.276728	-0.039499	0.960136
10346	29234199	-2.534734	0.933610	9.397063	0.030956	0.013351	-0.024486	-0.018567	-0.020392	0.010140				-0.006337	0.002334	0.023492	1.000000	-0.000023	-0.000025	0.000013	0.984826	0.034081	0.136967	0.100980	5.638157	15.241881	12.463842	0.942086	0.208232	-0.262895	-0.189560	0.977283	0.094790	0.276661	-0.039466	0.960157
10347	29234224	-2.472690	0.957025	9.391840	0.082889	0.049580	-0.043586	-0.017431	-0.018765	0.012602				-0.006182	0.002393	0.023479	1.000000	-0.000022	-0.000023	0.000016	0.984829	0.034064	0.136936	0.100994	5.635900	15.238427	12.464891	0.942098	0.208252	-0.262836	-0.189594	0.977280	0.094754	0.276597	-0.039435	0.960176
10348	29234249	-2.500290	0.967941	9.413150	0.060179	0.054318	-0.014837	-0.027132	-0.013386	0.007874				-0.006251	0.002421	0.023533	1.000000	-0.000034	-0.000017	0.000010	0.984833	0.034033	0.136910	0.101003	5.632091	15.235806	12.465321	0.942108	0.208262	-0.262792	-0.189624	0.977280	0.094691	0.276542	-0.039377	0.960195
10349	29234274	-2.539038	0.879825	9.436765	0.046595	-0.040285	0.009694	-0.026233	-0.010483	0.007500	-0.081852	0.275044	-1.511126	-0.006348	0.002200	0.023592	1.000000	-0.000033	-0.000013	0.000009	0.984836	0.034003	0.136888	0.101013	5.628407	15.233604	12.465738	0.942116	0.208271	-0.262755	-0.189653	0.977280	0.094630	0.276494	-0.039320	0.960211
10350	29234299	-2.584726	0.801236	9.471066	0.027172	-0.127720	0.047205	-0.020579	-0.015980	0.012882				-0.006462	0.002004	0.023677	1.000000	-0.000026	-0.000020	0.000016	0.984839	0.033982	0.136860	0.101027	5.625721	15.230542	12.466870	0.942126	0.208293	-0.262704	-0.189690	0.977277	0.094587	0.276436	-0.039280	0.960229
10351	29234324	-2.536344	0.864595	9.455348	0.055641	-0.054919	0.025401	-0.018202	-0.020376	0.015166				-0.006342	0.002162	0.023638	1.000000	-0.000023	-0.000025	0.000019	0.984843	0.033964	0.136826	0.101044	5.623447	15.226822	12.468275	0.942137	0.208320	-0.262641	-0.189731	0.977273	0.094550	0.276369	-0.039248	0.960250
10352	29234349	-2.458876	0.955679	9.382542	0.090510	0.053312	-0.056240	-0.017637	-0.020966	0.013670				-0.006148	0.002390	0.023456	1.000000	-0.000022	-0.000026	0.000017	0.984846	0.033947	0.136792	0.101059	5.621194	15.223040	12.469451	0.942150	0.208343	-0.262577	-0.189768	0.977269	0.094514	0.276300	-0.039218	0.960271
10353	29234374	-2.435450	0.915870	9.353157	0.111560	0.020995	-0.094361	-0.024799	-0.016676	0.008087	-0.082819	0.274576	-1.512107	-0.006089	0.002290	0.023383	1.000000	-0.000031	-0.000021	0.000010	0.984851	0.033920	0.136763	0.101068	5.617715	15.219947	12.469865	0.942162	0.208353	-0.262525	-0.189797	0.977269	0.094457	0.276238	-0.039168	0.960291
10354	29234399	-2.614924	0.879705	9.475294	-0.017578	-0.056374	0.066624	-0.017288	-0.015090	0.013471				-0.006538	0.002200	0.023688	1.000000	-0.000022	-0.000019	0.000017	0.984853	0.033903	0.136736	0.101083	5.615526	15.217004	12.471097	0.942171	0.208376	-0.262476	-0.189833	0.977266	0.094422	0.276184	-0.039135	0.960308
10355	29234424	-2.668695	0.918090	9.503337	-0.068516	-0.030855	0.111286	-0.019264	-0.019114	0.011259				-0.006672	0.002296	0.023758	1.000000	-0.000024	-0.000024	0.000014	0.984857	0.033883	0.136704	0.101095	5.612953	15.213519	12.471944	0.942183	0.208393	-0.262417	-0.189865	0.977263	0.094380	0.276119	-0.039100	0.960328
10356	29234449	-2.530556	1.018845	9.423926	0.019743	0.099665	0.008287	-0.017518	-0.023876	0.014047				-0.006327	0.002548	0.023560	1.000000	-0.000022	-0.000030	0.000018	0.984861	0.033867	0.136666	0.101111	5.610721	15.209316	12.473134	0.942198	0.208417	-0.262346	-0.189903	0.977259	0.094345	0.276043	-0.039071	0.960351
10357	29234474	-2.464253	1.014913	9.362787	0.065641	0.112542	-0.068185	-0.023080	-0.017589	0.006655	-0.082897	0.276973	-1.513075	-0.006161	0.002538	0.023407	1.000000	-0.000029	-0.000022	0.000008	0.984866	0.033841	0.136636	0.101118	5.607428	15.206113	12.473324	0.942212	0.208423	-0.262292	-0.189927	0.977260	0.094291	0.275980	-0.039026	0.960371
10358	29234499	-2.423245	0.823553	9.383457	0.145508	-0.066345	-0.077112	-0.021431	-0.020057	0.002716				-0.006059	0.002059	0.023458	1.000000	-0.000027	-0.000025	0.000003	0.984871	0.033818	0.136603	0.101120	5.604211	15.202613	12.472896	0.942229	0.208420	-0.262233	-0.189941	0.977262	0.094239	0.275912	-0.038985	0.960392
10359	29234524	-2.617024	1.042740	9.286962	-0.105774	0.111631	-0.098338	-0.021650	-0.012720	0.006968				-0.006543	0.002607	0.023217	1.000000	-0.000027	-0.000016	0.000009	0.984874	0.033793	0.136579	0.101128	5.601154	15.200100	12.473202	0.942239	0.208427	-0.262191	-0.189965	0.977262	0.094188	0.275861	-0.038941	0.960409
10360	29234549	-2.590450	0.879202	9.603003	0.036883	-0.054384	0.182833	-0.025737	-0.014265	0.004616				-0.006477	0.002199	0.024007	1.000000	-0.000032	-0.000018	0.000006	0.984878	0.033764	0.136552	0.101133	5.597416	15.197400	12.473139	0.942251	0.208429	-0.262145	-0.189986	0.977264	0.094127	0.275804	-0.038887	0.960427
10361	29234574	-2.584858	0.805159	9.522954	0.033577	-0.122226	0.097528	-0.020431	-0.018629	0.009432	-0.083321	0.276507	-1.512084	-0.006463	0.002013	0.023807	1.000000	-0.000026	-0.000023	0.000012	0.984882	0.033743	0.136521	0.101143	5.594607	15.194009	12.473724	0.942264	0.208442	-0.262088	-0.190015	0.977263	0.094081	0.275740	-0.038849	0.960447
10362	29234599	-2.547623	0.768109	9.496256	0.067608	-0.149508	0.058649	-0.014351	-0.018767	0.009105				-0.006370	0.001921	0.023740	1.000000	-0.000018	-0.000023	0.000011	0.984886	0.033729	0.136490	0.101152	5.592656	15.190604	12.474259	0.942277	0.208454	-0.262031	-0.190039	0.977261	0.094050	0.275678	-0.038825	0.960466
10363	29234624	-2.533593	0.824764	9.433929	0.052077	-0.088787	0.000442	-0.011134	-0.023979	0.012212				-0.006335	0.002062	0.023585	1.000000	-0.000014	-0.000030	0.000015	0.984891	0.033720	0.136453	0.101164	5.591266	15.186413	12.475178	0.942293	0.208473	-0.261960	-0.190068	0.977258	0.094029	0.275605	-0.038812	0.960487
10364	29234649	-2.511123	0.892696	9.293179	0.020870	-0.011787	-0.134245	-0.022604	-0.019877	0.014442				-0.006278	0.002232	0.023233	1.000000	-0.000028	-0.000025	0.000018	0.984894	0.033697	0.136420	0.101181	5.588335	15.182775	12.476486	0.942304	0.208498	-0.261899	-0.190111	0.977254	0.093981	0.275537	-0.038769	0.960508
10365	29234674	-2.469966	0.878680	9.370301	0.082932	-0.019912	-0.072246	-0.013332	-0.023662	0.015776	-0.084728	0.276534	-1.512066	-0.006176	0.002197	0.023426	1.000000	-0.000017	-0.000030	0.000020	0.984898	0.033686	0.136383	0.101197	5.586769	15.178579	12.477936	0.942318	0.208526	-0.261828	-0.190150	0.977249	0.093957	0.275464	-0.038751	0.960530
10366	29234699	-2.478275	0.930797	9.414360	0.076413	0.027604	-0.022848	-0.012255	-0.025192	0.019114				-0.006196	0.002327	0.023536	1.000000	-0.000015	-0.000031	0.000024	0.984902	0.033677	0.136344	0.101218	5.585481	15.174119	12.479858	0.942331	0.208562	-0.261753	-0.190196	0.977242	0.093937	0.275388	-0.038736	0.960552
10367	29234724	-2.572121	0.953945	9.475569	-0.000133	0.028472	0.062682	-0.014476	-0.018264	0.016952				-0.006431	0.002385	0.023689	1.000000	-0.000018	-0.000023	0.000021	0.984904	0.033664	0.136313	0.101236	5.583817	15.170676	12.481559	0.942340	0.208594	-0.261695	-0.190238	0.977236	0.093911	0.275327	-0.038712	0.960571
10368	29234749	-2.583220	0.900313	9.476716	-0.000589	-0.026024	0.061652	-0.016414	-0.014651	0.013040				-0.006459	0.002251	0.023692	1.000000	-0.000021	-0.000018	0.000016	0.984907	0.033647	0.136287	0.101250	5.581738	15.167803	12.482736	0.942348	0.208616	-0.261647	-0.190273	0.977232	0.093877	0.275274	-0.038681	0.960587
10369	29234774	-2.572101	0.914122	9.460821	0.002486	-0.009560	0.044776	-0.010952	-0.015421	0.012769	-0.084773	0.277009	-1.513051	-0.006431	0.002286	0.023652	1.000000	-0.000014	-0.000019	0.000016	0.984910	0.033638	0.136261	0.101263	5.580428	15.164824	12.483861	0.942358	0.208637	-0.261597	-0.190303	0.977229	0.093857	0.275222	-0.038664	0.960603
10370	29234799	-2.440792	0.942210	9.300035	0.075965	0.051853	-0.141385	-0.018013	-0.014579	0.013098				-0.006102	0.002356	0.023250	1.000000	-0.000023	-0.000018	0.000016	0.984913	0.033619	0.136235	0.101278	5.578123	15.161960	12.485047	0.942366	0.208660	-0.261548	-0.190339	0.977225	0.093819	0.275168	-0.038629	0.960620
10371	29234824	-2.529287	0.827782	9.363449	0.031215	-0.080755	-0.068055	-0.015172	-0.015937	0.016005				-0.006324	0.002070	0.023408	1.000000	-0.000019	-0.000020	0.000020	0.984915	0.033605	0.136207	0.101295	5.576331	15.158863	12.486643	0.942374	0.208689	-0.261496	-0.190380	0.977220	0.093791	0.275112	-0.038602	0.960637
10372	29234849	-2.631675	0.809327	9.516292	-0.020533	-0.125998	0.103812	-0.012650	-0.022939	0.014015				-0.006580	0.002024	0.023791	1.000000	-0.000016	-0.000029	0.000018	0.984919	0.033595	0.136171	0.101310	5.574798	15.154795	12.487844	0.942388	0.208713	-0.261428	-0.190414	0.977216	0.093767	0.275042	-0.038585	0.960658
10373	29234874	-2.626104	0.923409	9.552588	-0.027902	-0.014635	0.147941	-0.014803	-0.029956	0.014506	-0.084808	0.277967	-1.513537	-0.006566	0.002309	0.023881	1.000000	-0.000019	-0.000037	0.000018	0.984924	0.033582	0.136126	0.101325	5.572948	15.149719	12.489019	0.942406	0.208737	-0.261342	-0.190451	0.977211	0.093738	0.274953	-0.038566	0.960684
10374	29234899	-2.519730	0.885323	9.427492	0.044408	-0.024539	-0.003600	-0.017980	-0.023252	0.013478				-0.006300	0.002214	0.023568	1.000000	-0.000022	-0.000029	0.000017	0.984928	0.033565	0.136089	0.101339	5.570629	15.145614	12.490136	0.942420	0.208759	-0.261273	-0.190488	0.977208	0.093701	0.274879	-0.038536	0.960706
10375	29234924	-2.554284	0.898961	9.472728	0.020942	-0.020069	0.050165	-0.014736	-0.022918	0.014880				-0.006386	0.002248	0.023682	1.000000	-0.000018	-0.000029	0.000019	0.984932	0.033552	0.136053	0.101355	5.568830	15.141537	12.491466	0.942434	0.208785	-0.261204	-0.190526	0.977203	0.093673	0.274807	-0.038514	0.960728
10376	29234949	-2.567862	0.980196	9.451717	-0.014065	0.057188	0.041133	-0.009046	-0.029966	0.014053				-0.006421	0.002451	0.023629	1.000000	-0.000011	-0.000037	0.000018	0.984937	0.033547	0.136009	0.101368	5.567787	15.136467	12.492572	0.942452	0.208808	-0.261119	-0.190558	0.977198	0.093657	0.274721	-0.038509	0.960752
10377	29234974	-2.575576	1.101853	9.293850	-0.088541	0.180949	-0.097143	-0.021417	-0.024785	0.016527	-0.085222	0.277984	-1.512047	-0.006440	0.002755	0.023234	1.000000	-0.000027	-0.000031	0.000021	0.984941	0.033526	0.135969	0.101387	5.565088	15.132101	12.494118	0.942466	0.208838	-0.261045	-0.190604	0.977193	0.093614	0.274642	-0.038472	0.960777
10378	29234999	-2.549217	0.751308	9.577336	0.079904	-0.166895	0.135547	-0.016774	-0.029302	0.015499				-0.006374	0.001879	0.023943	1.000000	-0.000021	-0.000037	0.000019	0.984946	0.033512	0.135925	0.101404	5.562996	15.127105	12.495448	0.942483	0.208865	-0.260961	-0.190645	0.977188	0.093581	0.274554	-0.038448	0.960803
10379	29235024	-2.610931	0.869879	9.516501	-0.018594	-0.061367	0.104292	-0.019321	-0.031753	0.016607				-0.006528	0.002175	0.023791	1.000000	-0.000024	-0.000040	0.000021	0.984951	0.033494	0.135877	0.101422	5.560573	15.121745	12.496906	0.942502	0.208894	-0.260871	-0.190690	0.977183	0.093543	0.274459	-0.038419	0.960831
10380	29235049	-2.534948	0.966271	9.495579	0.028008	0.049516	0.073388	-0.014266	-0.029956	0.018282				-0.006338	0.002416	0.023739	1.000000	-0.000018	-0.000037	0.000023	0.984956	0.033484	0.135832	0.101442	5.558946	15.116618	12.498637	0.942518	0.208928	-0.260785	-0.190735	0.977177	0.093518	0.274371	-0.038401	0.960857
10381	29235074	-2.579148	0.871429	9.479277	-0.000864	-0.051618	0.060388	-0.016294	-0.031060	0.016633	-0.083853	0.276988	-1.513557	-0.006449	0.002179	0.023698	1.000000	-0.000020	-0.000039	0.000021	0.984961	0.033470	0.135786	0.101460	5.556960	15.111356	12.500110	0.942536	0.208957	-0.260696	-0.190778	0.977171	0.093487	0.274279	-0.038380	0.960884
10382	29235099	-2.511376	0.882674	9.400894	0.038239	-0.023445	-0.031539	-0.014637	-0.033523	0.020857				-0.006279	0.002207	0.023502	1.000000	-0.000018	-0.000042	0.000026	0.984966	0.033459	0.135736	0.101482	5.555365	15.105684	12.502170	0.942554	0.208997	-0.260600	-0.190830	0.977164	0.093463	0.274182	-0.038363	0.960912
10383	29235124	-2.562513	0.868751	9.446026	0.003892	-0.049456	0.023852	-0.014062	-0.038500	0.018792				-0.006407	0.002172	0.023615	1.000000	-0.000018	-0.000048	0.000023	0.984972	0.033450	0.135681	0.101502	5.553754	15.099332	12.503855	0.942576	0.209031	-0.260493	-0.190877	0.977157	0.093438	0.274074	-0.038351	0.960944
10384	29235149	-2.628771	0.878256	9.496567	-0.047791	-0.056117	0.090557	-0.010349	-0.042968	0.020954				-0.006573	0.002196	0.023741	1.000000	-0.000013	-0.000054	0.000026	0.984978	0.033446	0.135620	0.101524	5.552741	15.092313	12.505794	0.942600	0.209069	-0.260375	-0.190926	0.977149	0.093424	0.273957	-0.038350	0.960977
10385	29235174	-2.602447	0.930571	9.470163	-0.041211	0.001521	0.063217	-0.012366	-0.040838	0.019181	-0.085713	0.276063	-1.513542	-0.006507	0.002327	0.023675	1.000000	-0.000015	-0.000051	0.000024	0.984984	0.033439	0.135562	0.101544	5.551378	15.085622	12.507503	0.942623	0.209104	-0.260262	-0.190972	0.977141	0.093405	0.273844	-0.038343	0.961009
10386	29235199	-2.569463	0.909845	9.498039	0.000183	-0.012870	0.079488	-0.013518	-0.040792	0.017856				-0.006425	0.002275	0.023745	1.000000	-0.000017	-0.000051	0.000022	0.984990	0.033430	0.135504	0.101562	5.549800	15.078956	12.509016	0.942648	0.209136	-0.260150	-0.191016	0.977135	0.093381	0.273731	-0.038333	0.961042
10387	29235224	-2.432956	0.853658	9.428772	0.119134	-0.036453	-0.027813	-0.018138	-0.049333	0.017583				-0.006084	0.002135	0.023572	1.000000	-0.000023	-0.000062	0.000022	0.984999	0.033417	0.135435	0.101581	5.547518	15.071076	12.510367	0.942678	0.209166	-0.260017	-0.191062	0.977129	0.093346	0.273595	-0.038316	0.961081
10388	29235249	-2.517738	0.993368	9.237633	-0.040848	0.089481	-0.176443	-0.010508	-0.042529	0.020395				-0.006296	0.002484	0.023094	1.000000	-0.000013	-0.000053	0.000025	0.985005	0.033412	0.135375	0.101602	5.546461	15.064127	12.512231	0.942701	0.209203	-0.259900	-0.191110	0.977121	0.093331	0.273479	-0.038314	0.961115
10389	29235274	-2.563948	0.944163	9.524763	0.002369	0.020737	0.106952	-0.013505	-0.043465	0.020936	-0.087082	0.277059	-1.512032	-0.006411	0.002361	0.023812	1.000000	-0.000017	-0.000054	0.000026	0.985011	0.033405	0.135313	0.101624	5.544993	15.057037	12.514162	0.942726	0.209242	-0.259780	-0.191161	0.977113	0.093310	0.273359	-0.038306	0.961149
10390	29235299	-2.623659	0.804807	9.610722	-0.005508	-0.131251	0.192078	-0.014313	-0.053070	0.018361				-0.006561	0.002012	0.024026	1.000000	-0.000018	-0.000066	0.000023	0.985020	0.033397	0.135240	0.101643	5.543274	15.048614	12.515575	0.942758	0.209273	-0.259639	-0.191207	0.977107	0.093285	0.273217	-0.038300	0.961190
10391	29235324	-2.502034	0.864405	9.503248	0.067197	-0.043519	0.062770	-0.012763	-0.045852	0.022076				-0.006257	0.002161	0.023758	1.000000	-0.000016	-0.000057	0.000028	0.985026	0.033390	0.135175	0.101666	5.541946	15.041168	12.517639	0.942783	0.209315	-0.259513	-0.191260	0.977098	0.093266	0.273092	-0.038295	0.961226
10392	29235349	-2.544697	0.869962	9.488616	0.020670	-0.046787	0.060293	-0.005651	-0.045902	0.023763				-0.006363	0.002175	0.023721	1.000000	-0.000007	-0.000057	0.000030	0.985032	0.033393	0.135112	0.101690	5.541701	15.033692	12.519953	0.942808	0.209360	-0.259387	-0.191313	0.977088	0.093265	0.272970	-0.038307	0.961260
10393	29235374	-2.652186	0.909784	9.515287	-0.082303	-0.031527	0.117513	-0.009960	-0.049315	0.024040	-0.086591	0.278979	-1.510537	-0.006632	0.002275	0.023788	1.000000	-0.000012	-0.000062	0.000030	0.985039	0.033391	0.135043	0.101715	5.540837	15.025726	12.522258	0.942835	0.209406	-0.259253	-0.191369	0.977078	0.093254	0.272838	-0.038310	0.961297
10394	29235399	-2.595498	0.965019	9.468951	-0.053821	0.035990	0.063417	-0.013071	-0.056268	0.024463				-0.006490	0.002413	0.023672	1.000000	-0.000016	-0.000070	0.000031	0.985047	0.033385	0.134966	0.101741	5.539517	15.016762	12.524526	0.942866	0.209452	-0.259102	-0.191428	0.977068	0.093236	0.272688	-0.038309	0.961339
10395	29235424	-2.515532	0.934861	9.427654	0.014695	0.024701	0.000195	-0.011425	-0.052518	0.025105				-0.006290	0.002337	0.023569	1.000000	-0.000014	-0.000066	0.000031	0.985055	0.033382	0.134893	0.101768	5.538470	15.008324	12.526943	0.942894	0.209500	-0.258959	-0.191488	0.977058	0.093222	0.272548	-0.038311	0.961379
10396	29235449	-2.503309	0.859044	9.462003	0.048577	-0.048346	0.022992	-0.008689	-0.055316	0.020671				-0.006260	0.002148	0.023655	1.000000	-0.000011	-0.000069	0.000026	0.985063	0.033382	0.134817	0.101788	5.537636	14.999549	12.528665	0.942927	0.209537	-0.258811	-0.191535	0.977050	0.093212	0.272403	-0.038320	0.961420
10397	29235474	-2.550385	0.836787	9.535032	0.027195	-0.082866	0.103326	-0.011656	-0.048232	0.027923	-0.088037	0.278037	-1.512011	-0.006377	0.002092	0.023837	1.000000	-0.000015	-0.000060	0.000035	0.985069	0.033378	0.134750	0.101819	5.536680	14.991683	12.531559	0.942951	0.209592	-0.258679	-0.191602	0.977038	0.093199	0.272273	-0.038319	0.961457
10398	29235499	-2.652366	0.882046	9.568397	-0.070164	-0.061622	0.165984	-0.006098	-0.053069	0.023258				-0.006633	0.002205	0.023921	1.000000	-0.000008	-0.000066	0.000029	0.985077	0.033381	0.134677	0.101842	5.536323	14.983193	12.533696	0.942980	0.209636	-0.258536	-0.191653	0.977028	0.093197	0.272134	-0.038334	0.961496
10399	29235524	-2.581569	1.017440	9.430547	-0.068528	0.090747	0.027748	-0.014797	-0.057402	0.028470				-0.006456	0.002544	0.023576	1.000000	-0.000018	-0.000072	0.000036	0.985084	0.033374	0.134598	0.101873	5.534903	14.974012	12.536539	0.943011	0.209691	-0.258381	-0.191723	0.977016	0.093177	0.271981	-0.038329	0.961539
10400	29235549	-2.540455	0.890718	9.462088	0.001356	-0.025756	0.035651	-0.015429	-0.062177	0.026712				-0.006353	0.002227	0.023655	1.000000	-0.000019	-0.000078	0.000033	0.985093	0.033367	0.134513	0.101902	5.533307	14.964175	12.539055	0.943045	0.209742	-0.258215	-0.191789	0.977005	0.093154	0.271816	-0.038326	0.961586
10401	29235574	-2.624894	0.766634	9.528116	-0.038057	-0.167660	0.109373	-0.006908	-0.062673	0.028472	-0.089889	0.276632	-1.512001	-0.006564	0.001917	0.023820	1.000000	-0.000009	-0.000078	0.000036	0.985102	0.033371	0.134428	0.101931	5.532996	14.954244	12.541824	0.943078	0.209798	-0.258048	-0.191853	0.976993	0.093153	0.271654	-0.038344	0.961631
10402	29235599	-2.582146	0.829773	9.566932	-0.001161	-0.098862	0.141550	-0.006047	-0.064109	0.029548				-0.006457	0.002074	0.023917	1.000000	-0.000008	-0.000080	0.000037	0.985110	0.033377	0.134342	0.101962	5.532844	14.944092	12.544730	0.943112	0.209856	-0.257876	-0.191920	0.976979	0.093155	0.271489	-0.038364	0.961677
10403	29235624	-2.456538	0.809501	9.457860	0.089676	-0.088338	0.002403	-0.012578	-0.068675	0.036289				-0.006143	0.002024	0.023644	1.000000	-0.000016	-0.000086	0.000045	0.985119	0.033376	0.134249	0.102002	5.531996	14.933197	12.548567	0.943146	0.209929	-0.257693	-0.192007	0.976963	0.093146	0.271310	-0.038371	0.961727
10404	29235649	-2.421944	0.786343	9.392641	0.107445	-0.101646	-0.071377	-0.005886	-0.064200	0.035396				-0.006057	0.001966	0.023481	1.000000	-0.000007	-0.000080	0.000044	0.985126	0.033383	0.134162	0.102040	5.532088	14.922952	12.552335	0.943177	0.210001	-0.257520	-0.192087	0.976947	0.093152	0.271145	-0.038393	0.961772
10405	29235674	-2.467444	0.823432	9.421983	0.063917	-0.076485	-0.027971	-0.004128	-0.061360	0.031136	-0.089443	0.279027	-1.511490	-0.006170	0.002058	0.023554	1.000000	-0.000005	-0.000077	0.000039	0.985134	0.033390	0.134079	0.102072	5.532280	14.913170	12.555515	0.943208	0.210063	-0.257355	-0.192156	0.976933	0.093159	0.270988	-0.038416	0.961816
10406	29235699	-2.547477	0.867169	9.501909	-0.000267	-0.053936	0.073568	-0.008959	-0.065665	0.034927				-0.006371	0.002168	0.023754	1.000000	-0.000011	-0.000082	0.000044	0.985142	0.033393	0.133990	0.102110	5.531907	14.902723	12.559193	0.943241	0.210134	-0.257179	-0.192237	0.976917	0.093158	0.270818	-0.038431	0.961863
10407	29235724	-2.470328	0.845181	9.495218	0.073154	-0.059484	0.045261	-0.004151	-0.066680	0.038926				-0.006178	0.002113	0.023738	1.000000	-0.000005	-0.000083	0.000049	0.985150	0.033403	0.133900	0.102152	5.532370	14.892075	12.563446	0.943272	0.210214	-0.256999	-0.192324	0.976899	0.093170	0.270648	-0.038457	0.961910
10408	29235749	-2.424425	0.873223	9.342384	0.068079	-0.017105	-0.110926	-0.001289	-0.064209	0.039387				-0.006063	0.002183	0.023355	1.000000	-0.000002	-0.000080	0.000049	0.985157	0.033416	0.133814	0.102193	5.533269	14.881774	12.567802	0.943301	0.210296	-0.256825	-0.192410	0.976880	0.093189	0.270485	-0.038490	0.961954
10409	29235774	-2.427480	0.823443	9.419360	0.094081	-0.069970	-0.040717	0.002258	-0.064231	0.038099	-0.089914	0.278073	-1.511988	-0.006071	0.002058	0.023548	1.000000	0.000003	-0.000080	0.000048	0.985164	0.033433	0.133728	0.102233	5.534626	14.871487	12.571968	0.943330	0.210375	-0.256652	-0.192491	0.976861	0.093217	0.270324	-0.038531	0.961998
10410	29235799	-2.393018	0.750564	9.387224	0.130111	-0.133329	-0.087254	0.003324	-0.066477	0.040369				-0.005985	0.001876	0.023468	1.000000	0.000004	-0.000083	0.000050	0.985171	0.033452	0.133639	0.102276	5.536212	14.860848	12.576435	0.943361	0.210459	-0.256472	-0.192577	0.976841	0.093248	0.270158	-0.038576	0.962043
10411	29235824	-2.420571	0.778114	9.392608	0.098711	-0.113035	-0.072431	0.003935	-0.062656	0.037733				-0.006053	0.001945	0.023481	1.000000	0.000005	-0.000078	0.000047	0.985177	0.033471	0.133556	0.102315	5.537800	14.850790	12.580568	0.943389	0.210537	-0.256303	-0.192656	0.976823	0.093279	0.270001	-0.038620	0.962085
10412	29235849	-2.470176	0.839889	9.431371	0.048925	-0.065371	-0.016661	0.005430	-0.060837	0.044960				-0.006177	0.002099	0.023578	1.000000	0.000007	-0.000076	0.000056	0.985183	0.033493	0.133474	0.102362	5.539881	14.840892	12.585792	0.943413	0.210632	-0.256136	-0.192751	0.976800	0.093318	0.269849	-0.038667	0.962126
10413	29235874	-2.446777	0.870091	9.454086	0.069874	-0.032393	0.002033	0.002304	-0.060025	0.043805	-0.090393	0.277599	-1.512481	-0.006119	0.002175	0.023635	1.000000	0.000003	-0.000075	0.000055	0.985188	0.033510	0.133393	0.102409	5.541472	14.831125	12.590857	0.943437	0.210725	-0.255971	-0.192845	0.976779	0.093349	0.269698	-0.038706	0.962167
10414	29235899	-2.395569	0.937660	9.409119	0.091239	0.045443	-0.048009	0.005434	-0.064091	0.039004				-0.005991	0.002344	0.023522	1.000000	0.000007	-0.000080	0.000049	0.985195	0.033531	0.133308	0.102450	5.543315	14.820845	12.595155	0.943466	0.210806	-0.255797	-0.192926	0.976759	0.093384	0.269539	-0.038755	0.962209
10415	29235924	-2.483645	0.994194	9.390630	-0.009187	0.082190	-0.037994	0.004642	-0.057936	0.040181				-0.006211	0.002485	0.023476	1.000000	0.000006	-0.000072	0.000050	0.985200	0.033551	0.133230	0.102492	5.545110	14.811426	12.599715	0.943490	0.210890	-0.255639	-0.193010	0.976739	0.093419	0.269393	-0.038799	0.962248
10416	29235627																																			
10417	29235627																																			
10418	29235949	-2.508641	0.982846	9.471722	-0.010336	0.062249	0.045367	0.000180	-0.059366	0.033800				-0.006273	0.002457	0.023679	1.000000	0.000000	-0.000074	0.000042	0.985207	0.033564	0.133150	0.102527	5.546019	14.801891	12.603312	0.943519	0.210959	-0.255478	-0.193082	0.976723	0.093438	0.269243	-0.038832	0.962289
10419	29235974	-2.482424	0.970621	9.431781	0.003624	0.056192	-0.001057	0.000830	-0.058542	0.037575	-0.091862	0.279061	-1.513439	-0.006208	0.002426	0.023579	1.000000	0.000001	-0.000073	0.000047	0.985239	0.033619	0.133043	0.102338	5.548042	14.790022	12.580848	0.943653	0.210600	-0.255277	-0.192709	0.976793	0.093477	0.269040	-0.039016	0.962339
10420	29235999	-2.523841	0.945726	9.466268	-0.023120	0.021364	0.040371	-0.000766	-0.060658	0.032099				-0.006311	0.002364	0.023665	1.000000	-0.000001	-0.000076	0.000040	0.985246	0.033631	0.132961	0.102371	5.548746	14.780326	12.584175	0.943683	0.210664	-0.255114	-0.192778	0.976778	0.093493	0.268885	-0.039048	0.962380
10421	29236024	-2.562633	0.897368	9.516635	-0.038734	-0.036630	0.094206	-0.000079	-0.067782	0.038198				-0.006409	0.002243	0.023791	1.000000	-0.000000	-0.000085	0.000048	0.985254	0.033646	0.132871	0.102411	5.549750	14.769531	12.588300	0.943715	0.210743	-0.254932	-0.192861	0.976760	0.093515	0.268714	-0.039085	0.962427
10422	29236049	-2.525425	0.886434	9.504637	-0.006695	-0.039657	0.072150	0.001343	-0.073220	0.038347				-0.006316	0.002216	0.023761	1.000000	0.000002	-0.000092	0.000048	0.985262	0.033663	0.132774	0.102451	5.550944	14.757957	12.592367	0.943750	0.210821	-0.254736	-0.192943	0.976741	0.093540	0.268532	-0.039129	0.962476
10423	29236074	-2.416431	0.878320	9.454135	0.082588	-0.023235	-0.004942	0.002709	-0.069328	0.036034	-0.091426	0.280974	-1.513427	-0.006043	0.002195	0.023635	1.000000	0.000003	-0.000087	0.000045	0.985270	0.033681	0.132682	0.102488	5.552259	14.746971	12.596151	0.943784	0.210894	-0.254551	-0.193019	0.976724	0.093566	0.268358	-0.039173	0.962522
10424	29236099	-2.497475	0.961168	9.389180	-0.029337	0.042621	-0.039093	-0.000674	-0.072186	0.035444				-0.006246	0.002403	0.023472	1.000000	-0.000001	-0.000090	0.000044	0.985279	0.033695	0.132586	0.102524	5.553057	14.735585	12.599805	0.943820	0.210965	-0.254359	-0.193095	0.976707	0.093585	0.268177	-0.039212	0.962571
10425	29236124	-2.472823	0.980169	9.461085	0.007784	0.062975	0.025639	0.000247	-0.068726	0.037774				-0.006184	0.002450	0.023652	1.000000	0.000000	-0.000086	0.000047	0.985287	0.033710	0.132494	0.102564	5.554085	14.724660	12.603851	0.943852	0.211043	-0.254174	-0.193177	0.976689	0.093607	0.268004	-0.039250	0.962618
10426	29236149	-2.441250	0.941494	9.490248	0.050986	0.030119	0.042081	0.001037	-0.071420	0.036019				-0.006105	0.002353	0.023725	1.000000	0.000001	-0.000089	0.000045	0.985295	0.033726	0.132399	0.102601	5.555151	14.713376	12.607600	0.943887	0.211115	-0.253984	-0.193254	0.976671	0.093629	0.267825	-0.039292	0.962666
10427	29236174	-2.329560	0.916926	9.439670	0.146264	0.031149	-0.037237	0.003187	-0.062433	0.031516	-0.094150	0.280077	-1.511422	-0.005826	0.002292	0.023599	1.000000	0.000004	-0.000078	0.000039	0.985302	0.033743	0.132316	0.102633	5.556388	14.703435	12.610813	0.943918	0.211178	-0.253816	-0.193319	0.976656	0.093655	0.267669	-0.039335	0.962708
10428	29236199	-2.319800	0.915638	9.401104	0.143619	0.032755	-0.076935	0.005750	-0.064939	0.037313				-0.005802	0.002289	0.023502	1.000000	0.000007	-0.000081	0.000047	0.985309	0.033765	0.132230	0.102671	5.558199	14.693056	12.614845	0.943948	0.211254	-0.253641	-0.193395	0.976637	0.093689	0.267507	-0.039385	0.962751
10429	29236224	-2.459104	0.923824	9.463564	0.025903	0.008236	0.019291	0.007582	-0.056310	0.030851				-0.006150	0.002309	0.023658	1.000000	0.000009	-0.000070	0.000039	0.985315	0.033786	0.132154	0.102701	5.560061	14.683997	12.618047	0.943975	0.211316	-0.253488	-0.193456	0.976622	0.093725	0.267367	-0.039435	0.962787
10430	29236249	-2.445388	0.963420	9.507610	0.041399	0.047531	0.061944	0.003333	-0.058225	0.033827				-0.006115	0.002408	0.023769	1.000000	0.000004	-0.000073	0.000042	0.985322	0.033803	0.132076	0.102736	5.561418	14.674624	12.621660	0.944003	0.211384	-0.253330	-0.193526	0.976606	0.093751	0.267221	-0.039476	0.962826
10431	29236274	-2.414896	1.046129	9.473306	0.043779	0.135727	0.028960	0.000665	-0.053693	0.027527	-0.095533	0.278663	-1.511417	-0.006039	0.002615	0.023683	1.000000	0.000001	-0.000067	0.000034	0.985328	0.033815	0.132003	0.102763	5.562174	14.665984	12.624409	0.944030	0.211438	-0.253184	-0.193583	0.976593	0.093768	0.267083	-0.039508	0.962863
10432	29236299	-2.554181	0.949842	9.472914	-0.070637	0.011642	0.054798	0.005165	-0.052726	0.029442				-0.006387	0.002374	0.023682	1.000000	0.000006	-0.000066	0.000037	0.985334	0.033833	0.131932	0.102792	5.563649	14.657455	12.627454	0.944055	0.211496	-0.253040	-0.193642	0.976578	0.093796	0.266951	-0.039550	0.962898
10433	29236324	-2.621921	0.978354	9.578047	-0.113701	0.020301	0.175825	0.006272	-0.059707	0.032715				-0.006557	0.002445	0.023945	1.000000	0.000008	-0.000075	0.000041	0.985340	0.033853	0.131853	0.102825	5.565379	14.647885	12.630881	0.944084	0.211562	-0.252878	-0.193707	0.976562	0.093829	0.266802	-0.039598	0.962938
10434	29236349	-2.580224	1.044805	9.478536	-0.115613	0.097561	0.075678	-0.000758	-0.067063	0.027277				-0.006453	0.002612	0.023696	1.000000	-0.000001	-0.000084	0.000034	0.985349	0.033865	0.131764	0.102852	5.565872	14.637343	12.633401	0.944120	0.211614	-0.252700	-0.193765	0.976549	0.093842	0.266632	-0.039634	0.962983
10435	29236374	-2.437138	0.948338	9.502229	0.042868	0.032183	0.053312	0.000888	-0.067782	0.025472	-0.095543	0.278180	-1.511916	-0.006095	0.002371	0.023755	1.000000	0.000001	-0.000085	0.000032	0.985358	0.033879	0.131674	0.102876	5.566530	14.626723	12.635644	0.944157	0.211661	-0.252521	-0.193817	0.976538	0.093858	0.266462	-0.039674	0.963029
10436	29236399	-2.379197	0.898990	9.447572	0.090951	-0.002042	-0.018570	0.001225	-0.061628	0.026225				-0.005950	0.002247	0.023618	1.000000	0.000002	-0.000077	0.000033	0.985366	0.033892	0.131591	0.102901	5.567286	14.616969	12.638086	0.944190	0.211711	-0.252356	-0.193871	0.976525	0.093875	0.266306	-0.039711	0.963070
10437	29236424	-2.406710	0.893576	9.426250	0.058691	-0.012555	-0.032663	-0.006112	-0.061652	0.028114				-0.006019	0.002234	0.023565	1.000000	-0.000008	-0.000077	0.000035	0.985374	0.033897	0.131508	0.102930	5.567061	14.607186	12.640806	0.944222	0.211765	-0.252191	-0.193934	0.976513	0.093875	0.266147	-0.039731	0.963113
10438	29236449	-2.513230	0.840757	9.565684	0.003900	-0.092896	0.123522	0.004874	-0.061318	0.022477				-0.006285	0.002102	0.023914	1.000000	0.000006	-0.000077	0.000028	0.985382	0.033915	0.131426	0.102950	5.568201	14.597529	12.642700	0.944257	0.211805	-0.252028	-0.193976	0.976502	0.093898	0.265994	-0.039777	0.963154
10439	29236474	-2.453718	0.907070	9.495440	0.026972	-0.013401	0.047108	0.007166	-0.065807	0.022943	-0.095541	0.279143	-1.511413	-0.006136	0.002267	0.023738	1.000000	0.000009	-0.000082	0.000029	0.985391	0.033935	0.131340	0.102971	5.569670	14.587226	12.644598	0.944294	0.211847	-0.251854	-0.194018	0.976491	0.093927	0.265831	-0.039831	0.963196
10440	29236499	-2.377629	0.977556	9.414574	0.061842	0.074329	-0.043304	0.001480	-0.065753	0.025667				-0.005946	0.002444	0.023536	1.000000	0.000002	-0.000082	0.000032	0.985400	0.033950	0.131253	0.102995	5.570426	14.576892	12.646898	0.944330	0.211894	-0.251679	-0.194071	0.976479	0.093945	0.265666	-0.039871	0.963240
10441	29236524	-2.405258	0.936285	9.417070	0.042912	0.027537	-0.037819	0.003427	-0.061138	0.025424				-0.006015	0.002340	0.023542	1.000000	0.000004	-0.000076	0.000032	0.985407	0.033966	0.131171	0.103019	5.571467	14.567219	12.649228	0.944362	0.211942	-0.251516	-0.194121	0.976467	0.093966	0.265512	-0.039914	0.963281
10442	29236549	-2.475747	0.912537	9.508755	0.003544	-0.014824	0.065993	0.004314	-0.065874	0.022416				-0.006191	0.002281	0.023771	1.000000	0.000005	-0.000082	0.000028	0.985416	0.033983	0.131084	0.103039	5.572507	14.556914	12.651047	0.944400	0.211982	-0.251342	-0.194164	0.976456	0.093988	0.265348	-0.039961	0.963324
10443	29236574	-2.474383	0.898858	9.491407	0.001176	-0.027713	0.047657	0.001363	-0.069551	0.026228	-0.096949	0.279170	-1.511395	-0.006188	0.002247	0.023728	1.000000	0.000002	-0.000087	0.000033	0.985425	0.033998	0.130992	0.103064	5.573251	14.546030	12.653374	0.944438	0.212031	-0.251158	-0.194217	0.976444	0.094005	0.265173	-0.040003	0.963371
10444	29236599	-2.315866	0.850824	9.444789	0.145935	-0.039881	-0.041544	0.008102	-0.072181	0.023904				-0.005792	0.002127	0.023611	1.000000	0.000010	-0.000090	0.000030	0.985435	0.034021	0.130898	0.103085	5.574864	14.534805	12.655320	0.944479	0.212074	-0.250968	-0.194261	0.976432	0.094037	0.264996	-0.040063	0.963417
10445	29236624	-2.407828	0.959882	9.353320	0.012185	0.049985	-0.096335	0.012906	-0.064085	0.024059				-0.006022	0.002399	0.023383	1.000000	0.000016	-0.000080	0.000030	0.985443	0.034048	0.130814	0.103106	5.577201	14.524731	12.657406	0.944514	0.212118	-0.250798	-0.194302	0.976420	0.094081	0.264840	-0.040130	0.963457
10446	29236649	-2.464765	0.961953	9.544832	0.007225	0.031652	0.102654	0.009468	-0.059819	0.021386				-0.006164	0.002404	0.023862	1.000000	0.000012	-0.000075	0.000027	0.985451	0.034071	0.130735	0.103124	5.578961	14.515302	12.659158	0.944548	0.212156	-0.250639	-0.194339	0.976409	0.094114	0.264693	-0.040187	0.963495
10447	29236674	-2.527138	0.861150	9.633580	-0.010347	-0.084483	0.194302	0.014468	-0.070074	0.022058	-0.098375	0.279194	-1.511872	-0.006320	0.002152	0.024083	1.000000	0.000018	-0.000088	0.000028	0.985460	0.034101	0.130644	0.103142	5.581424	14.504402	12.660862	0.944588	0.212194	-0.250454	-0.194374	0.976398	0.094160	0.264523	-0.040261	0.963538
10448	29236699	-2.431806	0.893127	9.543292	0.047815	-0.029961	0.086455	0.007525	-0.066912	0.024956				-0.006082	0.002232	0.023858	1.000000	0.000009	-0.000084	0.000031	0.985468	0.034123	0.130556	0.103164	5.583011	14.493913	12.663037	0.944625	0.212240	-0.250277	-0.194420	0.976386	0.094192	0.264358	-0.040317	0.963581
10449	29236724	-2.380654	0.880993	9.472782	0.078295	-0.028813	0.004581	0.009997	-0.063947	0.024350				-0.005954	0.002202	0.023682	1.000000	0.000012	-0.000080	0.000030	0.985476	0.034147	0.130472	0.103186	5.584940	14.483854	12.665165	0.944659	0.212285	-0.250107	-0.194464	0.976373	0.094228	0.264201	-0.040377	0.963622
10450	29236749	-2.490974	0.854876	9.480608	-0.020228	-0.078815	0.037234	0.012849	-0.060093	0.024486				-0.006229	0.002137	0.023701	1.000000	0.000016	-0.000075	0.000031	0.985484	0.034175	0.130393	0.103207	5.587296	14.474343	12.667369	0.944692	0.212330	-0.249946	-0.194506	0.976361	0.094272	0.264055	-0.040442	0.963659
10451	29236774	-2.464996	0.876459	9.589773	0.027378	-0.057531	0.137983	0.015311	-0.065385	0.026269	-0.098827	0.278242	-1.511875	-0.006165	0.002190	0.023974	1.000000	0.000019	-0.000082	0.000033	0.985491	0.034206	0.130308	0.103230	5.590050	14.464053	12.669758	0.944727	0.212379	-0.249773	-0.194550	0.976347	0.094323	0.263897	-0.040516	0.963700
10452	29236799	-2.446944	0.846507	9.505874	0.026318	-0.080351	0.049792	0.015680	-0.067739	0.021505				-0.006119	0.002116	0.023764	1.000000	0.000020	-0.000085	0.000027	0.985500	0.034237	0.130220	0.103247	5.592673	14.453493	12.671411	0.944766	0.212417	-0.249594	-0.194583	0.976336	0.094371	0.263734	-0.040592	0.963741
10453	29236824	-2.353268	0.888973	9.539329	0.113791	-0.021375	0.062688	0.020699	-0.066155	0.025503				-0.005885	0.002222	0.023848	1.000000	0.000026	-0.000083	0.000032	0.985508	0.034275	0.130135	0.103268	5.596167	14.443103	12.673675	0.944801	0.212464	-0.249418	-0.194623	0.976322	0.094434	0.263577	-0.040679	0.963780
10454	29236849	-2.362774	0.871372	9.475407	0.089987	-0.038746	0.001797	0.016659	-0.059685	0.026029				-0.005909	0.002178	0.023688	1.000000	0.000021	-0.000075	0.000033	0.985515	0.034307	0.130057	0.103291	5.599125	14.433628	12.676109	0.944832	0.212513	-0.249258	-0.194666	0.976308	0.094488	0.263433	-0.040753	0.963817
10455	29236874	-2.419282	0.846579	9.476639	0.040461	-0.076108	0.014724	0.023897	-0.059870	0.027278	-0.099776	0.277777	-1.512362	-0.006050	0.002116	0.023691	1.000000	0.000030	-0.000075	0.000034	0.985521	0.034349	0.129979	0.103314	5.603164	14.424110	12.678723	0.944863	0.212565	-0.249097	-0.194707	0.976293	0.094560	0.263292	-0.040845	0.963851
