// General information: 
//  MT Manager version: 2020.5.0 
//  XDA version: 2020.5.0 build 5678 rev 108182 built on 2021-02-04
// Device information: 
//  DeviceId: 077822CD
//  ProductCode: MTi-G-710-2A8G4
//  Firmware Version: 1.7.2
//  Hardware Version: 3.0.0
// Device settings: 
//  Filter Profile: General(1.19)
//  Option Flags: Orientation Smoother Disabled, Position/Velocity Smoother Disabled, Continuous Zero Rotation Update Disabled, AHS Disabled, ICC Disabled
//  GNSS Platform: Portable
// Coordinate system: ENU
PacketCounter	SampleTimeFine	Acc_X	Acc_Y	Acc_Z	FreeAcc_E	FreeAcc_N	FreeAcc_U	Gyr_X	Gyr_Y	Gyr_Z	Mag_X	Mag_Y	Mag_Z	VelInc_X	VelInc_Y	VelInc_Z	OriInc_q0	OriInc_q1	OriInc_q2	OriInc_q3	Quat_q0	Quat_q1	Quat_q2	Quat_q3	Roll	Pitch	Yaw	Mat[1][1]	Mat[2][1]	Mat[3][1]	Mat[1][2]	Mat[2][2]	Mat[3][2]	Mat[1][3]	Mat[2][3]	Mat[3][3]
58939	30425224	-2.295740	0.602775	9.490852				0.011805	0.047174	0.013112				-0.005738	0.001506	0.023727	1.000000	0.000015	0.000059	0.000016																
58940	30425249	-2.286103	0.602760	9.493508				0.012119	0.046127	0.010727				-0.005714	0.001506	0.023734	1.000000	0.000015	0.000058	0.000013																
58941	30425274	-2.331717	0.580574	9.542634	-0.006961	0.025010	0.038736	0.014538	0.042854	0.012381	-0.164537	-0.501388	-0.417648	-0.005828	0.001451	0.023857	1.000000	0.000018	0.000054	0.000015	0.037039	-0.118646	0.035421	0.991613	3.627814	13.764133	176.159712	-0.969103	0.065052	-0.237925	-0.081862	-0.994747	0.061458	-0.232678	0.079036	0.969337
58942	30425299	-2.341364	0.605292	9.554682	-0.003395	0.001053	0.054229	0.011523	0.046781	0.008336				-0.005852	0.001513	0.023887	1.000000	0.000014	0.000058	0.000010	0.037033	-0.118697	0.035437	0.991607	3.629701	13.770121	176.160862	-0.969079	0.065031	-0.238027	-0.081856	-0.994746	0.061488	-0.232778	0.079071	0.969310
58943	30425324	-2.328921	0.592994	9.533370	-0.010341	0.012704	0.029852	0.009435	0.042605	0.008199				-0.005821	0.001482	0.023834	1.000000	0.000012	0.000053	0.000010	0.037026	-0.118744	0.035451	0.991601	3.631276	13.775514	176.161953	-0.969058	0.065011	-0.238118	-0.081850	-0.994745	0.061514	-0.232868	0.079100	0.969286
58944	30425349	-2.324754	0.527143	9.481274	0.002027	0.074808	-0.025690	0.012004	0.048837	0.010221				-0.005810	0.001317	0.023704	1.000000	0.000015	0.000061	0.000013	0.037017	-0.118798	0.035469	0.991594	3.633303	13.781779	176.163400	-0.969034	0.064985	-0.238225	-0.081839	-0.994743	0.061546	-0.232973	0.079136	0.969258
58945	30425374	-2.312325	0.536801	9.470669	-0.009515	0.065674	-0.038339	0.014260	0.049178	0.008106	-0.164014	-0.502352	-0.416674	-0.005779	0.001342	0.023677	1.000000	0.000018	0.000061	0.000010	0.037011	-0.118852	0.035489	0.991587	3.635580	13.788112	176.164539	-0.969009	0.064964	-0.238332	-0.081836	-0.994741	0.061583	-0.233078	0.079179	0.969229
58946	30425399	-2.356499	0.570966	9.527953	0.016307	0.033848	0.029817	0.016171	0.046100	0.009753				-0.005890	0.001427	0.023820	1.000000	0.000020	0.000058	0.000012	0.037004	-0.118903	0.035512	0.991580	3.638182	13.793989	176.165892	-0.968986	0.064939	-0.238432	-0.081829	-0.994739	0.061625	-0.233175	0.079225	0.969202
58947	30425424	-2.378593	0.606676	9.558655	0.026708	-0.000286	0.067045	0.012854	0.044477	0.011045				-0.005945	0.001516	0.023897	1.000000	0.000016	0.000056	0.000014	0.036994	-0.118951	0.035530	0.991574	3.640351	13.799623	176.167420	-0.968964	0.064912	-0.238527	-0.081817	-0.994738	0.061661	-0.233269	0.079263	0.969176
58948	30425449	-2.344085	0.614982	9.546729	-0.005608	-0.006705	0.047767	0.014406	0.046241	0.018339				-0.005859	0.001537	0.023867	1.000000	0.000018	0.000058	0.000023	0.036976	-0.119002	0.035552	0.991568	3.643003	13.805443	176.170039	-0.968943	0.064866	-0.238626	-0.081789	-0.994738	0.061704	-0.233368	0.079305	0.969149
58949	30425474	-2.324658	0.624735	9.506873	-0.016964	-0.017853	0.005111	0.013316	0.044455	0.013438	-0.162658	-0.500460	-0.417169	-0.005810	0.001561	0.023768	1.000000	0.000017	0.000056	0.000017	0.036963	-0.119050	0.035571	0.991562	3.645322	13.811052	176.171901	-0.968922	0.064833	-0.238721	-0.081772	-0.994737	0.061742	-0.233461	0.079344	0.969123
58950	30425499	-2.368750	0.623444	9.486884	0.029569	-0.020525	-0.003808	0.014961	0.048316	0.013758				-0.005920	0.001558	0.023718	1.000000	0.000019	0.000060	0.000017	0.036950	-0.119103	0.035593	0.991555	3.647897	13.817210	176.173866	-0.968898	0.064798	-0.238825	-0.081755	-0.994736	0.061784	-0.233564	0.079387	0.969095
58951	30425524	-2.390843	0.660430	9.526895	0.037673	-0.055223	0.042535	0.011756	0.045229	0.010408				-0.005976	0.001651	0.023818	1.000000	0.000015	0.000057	0.000013	0.036941	-0.119153	0.035611	0.991549	3.649889	13.822957	176.175309	-0.968876	0.064772	-0.238923	-0.081744	-0.994734	0.061816	-0.233661	0.079422	0.969069
58952	30425549	-2.371563	0.639855	9.526839	0.019683	-0.033126	0.036605	0.011416	0.046365	0.010154				-0.005928	0.001599	0.023817	1.000000	0.000014	0.000058	0.000013	0.036932	-0.119204	0.035627	0.991543	3.651826	13.828869	176.176725	-0.968853	0.064746	-0.239023	-0.081734	-0.994733	0.061847	-0.233760	0.079457	0.969042
58953	30425574	-2.338514	0.619181	9.524127	-0.011071	-0.010170	0.024797	0.013505	0.044791	0.006847	-0.162593	-0.499969	-0.415186	-0.005845	0.001548	0.023811	1.000000	0.000017	0.000056	0.000009	0.036928	-0.119253	0.035646	0.991536	3.653942	13.834586	176.177640	-0.968830	0.064729	-0.239120	-0.081733	-0.994731	0.061881	-0.233854	0.079496	0.969016
58954	30425599	-2.310926	0.601333	9.506804	-0.032968	0.008301	0.000307	0.011073	0.040290	0.009972				-0.005776	0.001503	0.023767	1.000000	0.000014	0.000050	0.000012	0.036920	-0.119296	0.035662	0.991531	3.655810	13.839631	176.178973	-0.968811	0.064705	-0.239205	-0.081723	-0.994730	0.061912	-0.233939	0.079529	0.968993
58955	30425624	-2.324738	0.577969	9.504060	-0.017994	0.030756	-0.000498	0.009380	0.043473	0.011146				-0.005811	0.001445	0.023760	1.000000	0.000012	0.000054	0.000014	0.036910	-0.119344	0.035676	0.991525	3.657484	13.845120	176.180509	-0.968790	0.064678	-0.239298	-0.081709	-0.994730	0.061938	-0.234031	0.079558	0.968969
58956	30425649	-2.360490	0.616514	9.505495	0.012273	-0.009379	0.011839	0.010805	0.042741	0.012977				-0.005900	0.001541	0.023764	1.000000	0.000014	0.000053	0.000016	0.036897	-0.119390	0.035693	0.991519	3.659426	13.850487	176.182307	-0.968769	0.064646	-0.239389	-0.081692	-0.994729	0.061970	-0.234121	0.079590	0.968944
58957	30425674	-2.356288	0.696320	9.505748	0.000741	-0.088223	0.016037	0.007540	0.038490	0.008185	-0.163089	-0.499482	-0.415670	-0.005890	0.001741	0.023765	1.000000	0.000009	0.000048	0.000010	0.036891	-0.119432	0.035704	0.991514	3.660721	13.855291	176.183330	-0.968750	0.064627	-0.239471	-0.081684	-0.994729	0.061990	-0.234202	0.079614	0.968923
58958	30425699	-2.341198	0.650861	9.510939	-0.012198	-0.041418	0.014633	0.006098	0.041603	0.008674				-0.005852	0.001627	0.023778	1.000000	0.000008	0.000052	0.000011	0.036883	-0.119477	0.035714	0.991509	3.661834	13.860535	176.184485	-0.968730	0.064606	-0.239559	-0.081674	-0.994728	0.062008	-0.234290	0.079635	0.968900
58959	30425724	-2.361991	0.601263	9.534708	0.005582	0.008868	0.039569	0.010179	0.040792	0.009897				-0.005904	0.001503	0.023837	1.000000	0.000013	0.000051	0.000012	0.036875	-0.119521	0.035729	0.991503	3.663574	13.865652	176.185812	-0.968710	0.064583	-0.239646	-0.081664	-0.994727	0.062036	-0.234376	0.079665	0.968876
58960	30425749	-2.349625	0.588814	9.546648	-0.009023	0.023354	0.047400	0.010252	0.040418	0.010152				-0.005873	0.001472	0.023867	1.000000	0.000013	0.000051	0.000013	0.036866	-0.119565	0.035744	0.991498	3.665332	13.870714	176.187174	-0.968690	0.064558	-0.239732	-0.081653	-0.994727	0.062064	-0.234461	0.079696	0.968853
58961	30425774	-2.381346	0.586028	9.554591	0.019273	0.025202	0.062530	0.014789	0.035521	0.005232	-0.163586	-0.499959	-0.416658	-0.005952	0.001465	0.023887	1.000000	0.000018	0.000044	0.000007	0.036865	-0.119602	0.035764	0.991492	3.667555	13.875120	176.187765	-0.968673	0.064547	-0.239807	-0.081657	-0.994724	0.062101	-0.234533	0.079737	0.968832
58962	30425799	-2.361903	0.630202	9.516174	0.005152	-0.020260	0.023392	0.011416	0.037329	0.007212				-0.005904	0.001575	0.023791	1.000000	0.000014	0.000047	0.000009	0.036860	-0.119642	0.035780	0.991487	3.669369	13.879767	176.188665	-0.968654	0.064530	-0.239885	-0.081653	-0.994722	0.062130	-0.234610	0.079770	0.968811
58963	30425824	-2.366047	0.650838	9.528211	0.004030	-0.039660	0.037332	0.013955	0.033402	0.007173				-0.005914	0.001627	0.023821	1.000000	0.000017	0.000042	0.000009	0.036856	-0.119677	0.035799	0.991482	3.671537	13.883852	176.189523	-0.968638	0.064515	-0.239954	-0.081652	-0.994720	0.062166	-0.234677	0.079809	0.968792
58964	30425849	-2.370228	0.635626	9.536137	0.006662	-0.023839	0.045070	0.011675	0.036553	0.006148				-0.005924	0.001589	0.023841	1.000000	0.000015	0.000046	0.000008	0.036852	-0.119716	0.035815	0.991477	3.673349	13.888398	176.190259	-0.968620	0.064501	-0.240031	-0.081651	-0.994718	0.062195	-0.234752	0.079842	0.968771
58965	30425874	-2.367398	0.637085	9.522852	0.006083	-0.025895	0.031617	0.009023	0.035068	0.004245	-0.164029	-0.500428	-0.416162	-0.005917	0.001592	0.023807	1.000000	0.000011	0.000044	0.000005	0.036851	-0.119754	0.035827	0.991472	3.674711	13.892748	176.190690	-0.968602	0.064493	-0.240105	-0.081654	-0.994717	0.062217	-0.234824	0.079869	0.968751
58966	30425899	-2.406074	0.635630	9.542762	0.038352	-0.025076	0.060106	0.009106	0.035562	0.007443				-0.006014	0.001589	0.023857	1.000000	0.000011	0.000044	0.000009	0.036846	-0.119791	0.035840	0.991468	3.676199	13.897140	176.191608	-0.968585	0.064476	-0.240180	-0.081649	-0.994716	0.062241	-0.234897	0.079896	0.968731
58967	30425924	-2.379946	0.597038	9.550637	0.013704	0.015799	0.059056	0.006412	0.032620	0.005166				-0.005949	0.001492	0.023877	1.000000	0.000008	0.000041	0.000006	0.036843	-0.119826	0.035849	0.991463	3.677214	13.901132	176.192163	-0.968569	0.064465	-0.240247	-0.081648	-0.994715	0.062257	-0.234964	0.079916	0.968713
58968	30425949	-2.356462	0.558693	9.502638	0.004664	0.051975	0.004528	0.010866	0.033654	0.002882				-0.005890	0.001396	0.023757	1.000000	0.000014	0.000042	0.000004	0.036844	-0.119861	0.035864	0.991458	3.678788	13.905293	176.192391	-0.968552	0.064460	-0.240318	-0.081655	-0.994713	0.062283	-0.235032	0.079947	0.968694
58969	30425974	-2.348110	0.609639	9.496163	-0.006791	0.001537	-0.000577	0.005955	0.031485	0.009371	-0.164021	-0.500908	-0.416166	-0.005869	0.001524	0.023741	1.000000	0.000007	0.000039	0.000012	0.036836	-0.119894	0.035873	0.991454	3.679884	13.909084	176.193555	-0.968537	0.064440	-0.240382	-0.081643	-0.994713	0.062300	-0.235096	0.079965	0.968677
58970	30425999	-2.346708	0.609618	9.500166	-0.009773	0.002253	0.002961	0.008225	0.035846	0.009260				-0.005866	0.001524	0.023751	1.000000	0.000010	0.000045	0.000012	0.036828	-0.119932	0.035885	0.991450	3.681311	13.913500	176.194744	-0.968520	0.064418	-0.240457	-0.081633	-0.994712	0.062323	-0.235170	0.079990	0.968657
58971	30425654																																			
58972	30426024	-2.346804	0.619198	9.525445	-0.016763	-0.005002	0.028068	0.009322	0.025082	0.005072				-0.005866	0.001548	0.023814	1.000000	0.000012	0.000031	0.000006	0.036826	-0.119957	0.035898	0.991446	3.682723	13.916415	176.195214	-0.968508	0.064410	-0.240506	-0.081634	-0.994710	0.062346	-0.235218	0.080016	0.968643
58973	30425654																																			
58974	30426049	-2.367598	0.583295	9.555912	-0.001565	0.032195	0.060341	0.011151	0.031467	0.008784				-0.005918	0.001458	0.023890	1.000000	0.000014	0.000039	0.000011	0.036819	-0.119990	0.035913	0.991442	3.684542	13.920209	176.196291	-0.968494	0.064390	-0.240570	-0.081627	-0.994709	0.062376	-0.235281	0.080048	0.968625
58975	30426074	-2.366121	0.656212	9.561477	-0.009356	-0.039854	0.070384	0.009982	0.030227	0.010219	-0.164064	-0.499470	-0.416647	-0.005914	0.001640	0.023904	1.000000	0.000012	0.000038	0.000013	0.037241	-0.119981	0.035975	0.991425	3.685746	13.921031	176.147681	-0.968435	0.065212	-0.240584	-0.082477	-0.994638	0.062396	-0.235225	0.080269	0.968621
58976	30426099	-2.403312	0.616359	9.534731	0.035803	-0.004541	0.050941	0.009912	0.028320	0.005950				-0.006007	0.001541	0.023837	1.000000	0.000012	0.000035	0.000007	0.037238	-0.120010	0.035988	0.991421	3.687280	13.924401	176.148311	-0.968422	0.065200	-0.240641	-0.082476	-0.994636	0.062421	-0.235281	0.080297	0.968605
58977	30426124	-2.400531	0.584900	9.500028	0.043297	0.024675	0.014696	0.016610	0.029129	0.005752				-0.006000	0.001462	0.023750	1.000000	0.000021	0.000036	0.000007	0.037237	-0.120040	0.036010	0.991417	3.689769	13.927889	176.148920	-0.968408	0.065189	-0.240701	-0.082479	-0.994633	0.062462	-0.235337	0.080342	0.968588
58978	30426149	-2.404663	0.630135	9.538770	0.034033	-0.017192	0.056043	0.011757	0.024728	0.007160				-0.006011	0.001575	0.023847	1.000000	0.000015	0.000031	0.000009	0.037233	-0.120064	0.036026	0.991413	3.691603	13.930734	176.149695	-0.968397	0.065175	-0.240749	-0.082476	-0.994632	0.062492	-0.235383	0.080373	0.968574
58979	30426174	-2.447521	0.620351	9.581271	0.065979	-0.006345	0.106915	0.014497	0.018574	0.010762	-0.164037	-0.499947	-0.416157	-0.006118	0.001550	0.023953	1.000000	0.000018	0.000023	0.000013	0.037225	-0.120080	0.036045	0.991411	3.693943	13.932667	176.150942	-0.968390	0.065153	-0.240781	-0.082467	-0.994630	0.062531	-0.235414	0.080411	0.968563
58980	30426199	-2.444785	0.639537	9.601287	0.056735	-0.023362	0.126846	0.013013	0.020631	0.004473				-0.006111	0.001598	0.024003	1.000000	0.000016	0.000026	0.000006	0.037224	-0.120100	0.036062	0.991408	3.695852	13.934951	176.151282	-0.968381	0.065147	-0.240820	-0.082471	-0.994628	0.062563	-0.235451	0.080445	0.968551
58981	30426224	-2.397840	0.613561	9.558668	0.023143	0.002553	0.072636	0.014538	0.019522	0.010513				-0.005994	0.001533	0.023897	1.000000	0.000018	0.000024	0.000013	0.037217	-0.120117	0.036081	0.991406	3.698191	13.937022	176.152501	-0.968374	0.065126	-0.240855	-0.082462	-0.994626	0.062602	-0.235484	0.080483	0.968540
58982	30426249	-2.391003	0.554499	9.527885	0.028357	0.059516	0.037475	0.010924	0.017832	0.007474				-0.005977	0.001386	0.023820	1.000000	0.000014	0.000022	0.000009	0.037212	-0.120133	0.036096	0.991403	3.699901	13.938878	176.153257	-0.968367	0.065112	-0.240887	-0.082458	-0.994625	0.062630	-0.235514	0.080512	0.968530
58983	30426274	-2.377139	0.561437	9.503965	0.019536	0.052118	0.011398	0.015788	0.018910	0.007953	-0.164516	-0.500422	-0.416650	-0.005942	0.001403	0.023760	1.000000	0.000020	0.000024	0.000010	0.037208	-0.120150	0.036117	0.991401	3.702327	13.940885	176.154092	-0.968359	0.065098	-0.240921	-0.082455	-0.994622	0.062671	-0.235545	0.080553	0.968519
58984	30426299	-2.341139	0.616637	9.469592	-0.011928	-0.003146	-0.027105	0.005841	0.016898	0.011955				-0.005852	0.001541	0.023674	1.000000	0.000007	0.000021	0.000015	0.037198	-0.120164	0.036125	0.991399	3.703466	13.942567	176.155499	-0.968354	0.065073	-0.240949	-0.082437	-0.994623	0.062690	-0.235574	0.080569	0.968511
58985	30426324	-2.451732	0.603749	9.607813	0.063436	0.014224	0.132603	0.016893	0.016314	0.012164				-0.006129	0.001509	0.024020	1.000000	0.000021	0.000020	0.000015	0.037189	-0.120178	0.036148	0.991397	3.706194	13.944163	176.156931	-0.968349	0.065049	-0.240976	-0.082425	-0.994621	0.062735	-0.235599	0.080612	0.968501
58986	30426349	-2.418647	0.658674	9.629297	0.021733	-0.035916	0.148887	0.020158	0.012176	0.014770				-0.006046	0.001646	0.024073	1.000000	0.000025	0.000015	0.000018	0.037177	-0.120186	0.036175	0.991395	3.709473	13.945143	176.158707	-0.968347	0.065019	-0.240993	-0.082409	-0.994619	0.062790	-0.235613	0.080663	0.968494
58987	30426374	-2.272108	0.708828	9.467270	-0.086573	-0.089273	-0.040206	0.005430	0.016373	0.014217	-0.165871	-0.501350	-0.415652	-0.005680	0.001772	0.023668	1.000000	0.000007	0.000020	0.000018	0.037163	-0.120200	0.036183	0.991394	3.710632	13.946729	176.160443	-0.968342	0.064989	-0.241020	-0.082386	-0.994619	0.062810	-0.235641	0.080678	0.968486
58988	30426399	-2.371317	0.626474	9.427047	0.025371	-0.016660	-0.060420	0.011812	0.023015	0.010993				-0.005928	0.001566	0.023568	1.000000	0.000015	0.000029	0.000014	0.037155	-0.120222	0.036200	0.991391	3.712606	13.949294	176.161767	-0.968333	0.064966	-0.241063	-0.082374	-0.994618	0.062842	-0.235683	0.080709	0.968473
58989	30426424	-2.410231	0.594329	9.541305	0.038559	0.022434	0.057597	0.013886	0.017585	0.012143				-0.006025	0.001485	0.023853	1.000000	0.000017	0.000022	0.000015	0.037145	-0.120237	0.036218	0.991389	3.714906	13.951072	176.163208	-0.968327	0.064941	-0.241093	-0.082360	-0.994617	0.062881	-0.235712	0.080745	0.968463
58990	30426449	-2.364588	0.671514	9.517639	-0.006329	-0.053043	0.028529	0.008656	0.007819	0.018388				-0.005911	0.001678	0.023794	1.000000	0.000011	0.000010	0.000023	0.037127	-0.120240	0.036231	0.991389	3.716656	13.951396	176.165476	-0.968328	0.064902	-0.241099	-0.082328	-0.994618	0.062910	-0.235718	0.080767	0.968459
58991	30426474	-2.325960	0.627627	9.476295	-0.030753	-0.009947	-0.023590	0.008990	0.012863	0.009036	-0.166350	-0.501824	-0.416145	-0.005815	0.001569	0.023691	1.000000	0.000011	0.000016	0.000011	0.037121	-0.120249	0.036243	0.991387	3.718133	13.952527	176.166408	-0.968324	0.064886	-0.241118	-0.082319	-0.994617	0.062935	-0.235736	0.080790	0.968453
58992	30426499	-2.310852	0.627557	9.486937	-0.048119	-0.007687	-0.016932	0.011469	0.017653	0.011876				-0.005777	0.001568	0.023717	1.000000	0.000014	0.000022	0.000015	0.037111	-0.120265	0.036259	0.991385	3.720077	13.954317	176.167811	-0.968318	0.064862	-0.241148	-0.082305	-0.994616	0.062967	-0.235766	0.080820	0.968443
58993	30426524	-2.370185	0.617837	9.512141	0.003762	0.000382	0.021173	0.007296	0.021404	0.012591				-0.005925	0.001544	0.023781	1.000000	0.000009	0.000027	0.000016	0.037100	-0.120285	0.036270	0.991383	3.721458	13.956637	176.169356	-0.968310	0.064835	-0.241187	-0.082286	-0.994616	0.062990	-0.235805	0.080840	0.968432
58994	30426549	-2.342483	0.651022	9.480346	-0.018483	-0.033166	-0.014209	0.006700	0.016306	0.014475				-0.005856	0.001627	0.023701	1.000000	0.000008	0.000020	0.000018	0.037087	-0.120298	0.036280	0.991381	3.722808	13.958210	176.171129	-0.968306	0.064805	-0.241214	-0.082263	-0.994617	0.063012	-0.235832	0.080858	0.968424
58995	30426574	-2.339775	0.644082	9.486972	-0.022517	-0.025078	-0.008886	0.011818	0.017709	0.015394	-0.165412	-0.501842	-0.416157	-0.005849	0.001610	0.023718	1.000000	0.000015	0.000022	0.000019	0.037073	-0.120314	0.036297	0.991379	3.724928	13.959975	176.173051	-0.968301	0.064772	-0.241244	-0.082240	-0.994616	0.063048	-0.235862	0.080889	0.968414
58996	30426599	-2.346668	0.638584	9.489616	-0.016183	-0.019621	-0.005009	0.008224	0.017482	0.016870				-0.005866	0.001596	0.023724	1.000000	0.000010	0.000022	0.000021	0.037056	-0.120329	0.036310	0.991378	3.726585	13.961694	176.175188	-0.968296	0.064735	-0.241273	-0.082212	-0.994617	0.063075	-0.235891	0.080911	0.968405
58997	30426624	-2.354933	0.635828	9.485597	-0.007314	-0.017506	-0.007080	0.005820	0.018473	0.019486				-0.005887	0.001589	0.023714	1.000000	0.000007	0.000023	0.000024	0.037036	-0.120345	0.036320	0.991376	3.727993	13.963530	176.177720	-0.968291	0.064692	-0.241304	-0.082176	-0.994618	0.063098	-0.235924	0.080927	0.968396
58998	30426649	-2.392250	0.634247	9.538787	0.016016	-0.013804	0.053335	0.005338	0.020677	0.018662				-0.005980	0.001585	0.023847	1.000000	0.000007	0.000026	0.000023	0.037017	-0.120364	0.036329	0.991374	3.729307	13.965689	176.180152	-0.968285	0.064650	-0.241341	-0.082141	-0.994620	0.063120	-0.235962	0.080942	0.968385
58999	30426674	-2.367412	0.654964	9.529555	-0.008093	-0.033198	0.039706	0.008503	0.021857	0.013417	-0.163507	-0.501392	-0.415187	-0.005918	0.001637	0.023824	1.000000	0.000011	0.000027	0.000017	0.037005	-0.120384	0.036342	0.991372	3.730892	13.968065	176.181811	-0.968276	0.064622	-0.241381	-0.082121	-0.994620	0.063146	-0.236002	0.080966	0.968374
59000	30426699	-2.354949	0.650913	9.498963	-0.013125	-0.030717	0.006818	0.004216	0.028007	0.013693				-0.005887	0.001627	0.023748	1.000000	0.000005	0.000035	0.000017	0.036992	-0.120413	0.036349	0.991368	3.731886	13.971318	176.183582	-0.968265	0.064591	-0.241436	-0.082098	-0.994621	0.063162	-0.236058	0.080979	0.968359
59001	30426724	-2.372887	0.654990	9.512266	0.000533	-0.034607	0.024289	0.006501	0.019562	0.012273				-0.005932	0.001637	0.023781	1.000000	0.000008	0.000024	0.000015	0.036981	-0.120431	0.036359	0.991366	3.733138	13.973377	176.185062	-0.968258	0.064565	-0.241471	-0.082080	-0.994621	0.063183	-0.236093	0.080997	0.968349
59002	30426749	-2.377017	0.661876	9.513607	0.003216	-0.041460	0.027021	0.003989	0.022106	0.012690				-0.005942	0.001654	0.023784	1.000000	0.000005	0.000028	0.000016	0.036969	-0.120452	0.036366	0.991364	3.734051	13.975796	176.186629	-0.968249	0.064538	-0.241512	-0.082059	-0.994622	0.063198	-0.236134	0.081009	0.968338
59003	30426774	-2.352266	0.612338	9.510805	-0.016610	0.009530	0.015194	0.007510	0.023751	0.012843	-0.163976	-0.501383	-0.415181	-0.005880	0.001531	0.023777	1.000000	0.000009	0.000030	0.000016	0.036957	-0.120475	0.036377	0.991361	3.735477	13.978448	176.188234	-0.968240	0.064510	-0.241557	-0.082040	-0.994622	0.063221	-0.236179	0.081030	0.968325
59004	30426799	-2.341179	0.616572	9.486870	-0.022352	0.004331	-0.010395	0.007400	0.023325	0.013971				-0.005852	0.001541	0.023717	1.000000	0.000009	0.000029	0.000017	0.036944	-0.120497	0.036388	0.991358	3.736927	13.981029	176.190001	-0.968231	0.064480	-0.241601	-0.082018	-0.994622	0.063245	-0.236223	0.081051	0.968313
59005	30426824	-2.349483	0.650853	9.516244	-0.024470	-0.027898	0.022223	0.001618	0.022121	0.009598				-0.005873	0.001627	0.023791	1.000000	0.000002	0.000028	0.000012	0.036935	-0.120519	0.036392	0.991356	3.737391	13.983478	176.191112	-0.968222	0.064460	-0.241642	-0.082004	-0.994623	0.063252	-0.236266	0.081057	0.968302
59006	30426849	-2.363236	0.660468	9.517607	-0.012757	-0.038087	0.027475	0.002538	0.024408	0.010356				-0.005907	0.001651	0.023794	1.000000	0.000003	0.000031	0.000013	0.036926	-0.120543	0.036397	0.991353	3.738018	13.986247	176.192357	-0.968212	0.064438	-0.241689	-0.081988	-0.994624	0.063262	-0.236313	0.081066	0.968289
59007	30426874	-2.345310	0.650910	9.505612	-0.027139	-0.028249	0.010919	0.001077	0.025848	0.012916	-0.164508	-0.500902	-0.416655	-0.005863	0.001627	0.023764	1.000000	0.000001	0.000032	0.000016	0.036913	-0.120569	0.036400	0.991350	3.738531	13.989198	176.193979	-0.968201	0.064410	-0.241739	-0.081965	-0.994625	0.063270	-0.236364	0.081072	0.968276
59008	30426899	-2.343873	0.652335	9.483010	-0.023770	-0.031313	-0.011224	0.002396	0.027539	0.008033				-0.005859	0.001631	0.023708	1.000000	0.000003	0.000034	0.000010	0.036906	-0.120597	0.036405	0.991347	3.739063	13.992437	176.194912	-0.968189	0.064393	-0.241794	-0.081955	-0.994625	0.063278	-0.236420	0.081081	0.968262
59009	30426924	-2.367412	0.628862	9.512169	-0.006306	-0.006887	0.021215	0.005594	0.022547	0.008747				-0.005918	0.001572	0.023781	1.000000	0.000007	0.000028	0.000011	0.036899	-0.120619	0.036413	0.991344	3.740067	13.994955	176.195902	-0.968179	0.064376	-0.241836	-0.081944	-0.994625	0.063294	-0.236462	0.081097	0.968250
59010	30426949	-2.377021	0.656372	9.516255	-0.000757	-0.034359	0.029237	0.005156	0.025500	0.007424				-0.005942	0.001641	0.023791	1.000000	0.000006	0.000032	0.000009	0.036894	-0.120644	0.036421	0.991341	3.740968	13.997908	176.196726	-0.968168	0.064361	-0.241886	-0.081937	-0.994625	0.063308	-0.236512	0.081112	0.968237
59011	30426974	-2.360576	0.628803	9.522813	-0.016572	-0.005313	0.029860	-0.000148	0.024563	0.008078	-0.164959	-0.500890	-0.416154	-0.005901	0.001572	0.023807	1.000000	-0.000000	0.000031	0.000010	0.036887	-0.120669	0.036422	0.991338	3.741130	14.000721	176.197637	-0.968157	0.064345	-0.241934	-0.081925	-0.994626	0.063310	-0.236560	0.081115	0.968225
59012	30426999	-2.371531	0.631650	9.501534	-0.001638	-0.010621	0.012088	-0.002962	0.027272	0.010559				-0.005928	0.001579	0.023754	1.000000	-0.000004	0.000034	0.000013	0.036876	-0.120697	0.036420	0.991335	3.740984	14.003897	176.198940	-0.968145	0.064322	-0.241988	-0.081905	-0.994627	0.063307	-0.236616	0.081110	0.968212
59013	30427024	-2.350896	0.627456	9.518827	-0.025790	-0.003622	0.023571	0.000122	0.024080	0.008824				-0.005877	0.001569	0.023797	1.000000	0.000000	0.000030	0.000011	0.036868	-0.120721	0.036421	0.991333	3.741211	14.006634	176.199956	-0.968134	0.064304	-0.242034	-0.081891	-0.994628	0.063310	-0.236663	0.081113	0.968200
59014	30427049	-2.295442	0.552479	9.344363	-0.032407	0.061055	-0.163519	0.016525	0.022948	0.014926				-0.005738	0.001381	0.023361	1.000000	0.000021	0.000029	0.000019	0.036856	-0.120742	0.036444	0.991330	3.744002	14.009152	176.201861	-0.968126	0.064271	-0.242077	-0.081873	-0.994627	0.063356	-0.236704	0.081157	0.968186
59015	30427074	-2.560751	0.647327	9.701016	0.131763	-0.021739	0.252029	-0.006135	0.019489	0.007395	-0.164011	-0.500425	-0.415667	-0.006401	0.001618	0.024253	1.000000	-0.000008	0.000024	0.000009	0.036849	-0.120761	0.036438	0.991328	3.743271	14.011245	176.202604	-0.968118	0.064258	-0.242112	-0.081859	-0.994629	0.063344	-0.236742	0.081143	0.968178
59016	30427099	-2.353475	0.725335	9.484553	-0.024078	-0.103478	-0.002791	0.000170	0.014089	0.009587				-0.005883	0.001813	0.023711	1.000000	0.000000	0.000018	0.000012	0.036840	-0.120772	0.036439	0.991327	3.743509	14.012547	176.203637	-0.968114	0.064240	-0.242134	-0.081844	-0.994630	0.063347	-0.236765	0.081144	0.968173
59017	30427124	-2.418690	0.647651	9.646549	0.006446	-0.017355	0.164919	-0.004135	0.024043	0.006281				-0.006046	0.001619	0.024117	1.000000	-0.000005	0.000030	0.000008	0.036835	-0.120796	0.036435	0.991324	3.743035	14.015302	176.204278	-0.968103	0.064229	-0.242181	-0.081834	-0.994631	0.063338	-0.236813	0.081137	0.968161
59018	30427149	-2.330011	0.633237	9.431075	-0.027670	-0.014857	-0.066086	-0.004961	0.024335	0.009045				-0.005824	0.001583	0.023578	1.000000	-0.000006	0.000030	0.000011	0.036826	-0.120821	0.036430	0.991322	3.742542	14.018073	176.205330	-0.968092	0.064210	-0.242228	-0.081816	-0.994633	0.063329	-0.236862	0.081127	0.968150
59019	30427174	-2.418294	0.623547	9.468231	0.049214	-0.007848	-0.009341	-0.003248	0.023282	0.006475	-0.164904	-0.500882	-0.414671	-0.006045	0.001559	0.023671	1.000000	-0.000004	0.000029	0.000008	0.036821	-0.120844	0.036427	0.991319	3.742200	14.020718	176.205993	-0.968082	0.064198	-0.242273	-0.081806	-0.994635	0.063323	-0.236908	0.081121	0.968140
59020	30427199	-2.400445	0.630296	9.497534	0.024007	-0.011140	0.015132	-0.004123	0.025342	0.004649				-0.006000	0.001576	0.023744	1.000000	-0.000005	0.000032	0.000006	0.036817	-0.120870	0.036423	0.991316	3.741673	14.023674	176.206406	-0.968070	0.064190	-0.242323	-0.081800	-0.994636	0.063313	-0.236959	0.081114	0.968128
59021	30427224	-2.418466	0.624617	9.545392	0.030316	-0.002819	0.065473	-0.003065	0.018346	0.002906				-0.006046	0.001562	0.023864	1.000000	-0.000004	0.000023	0.000004	0.036817	-0.120887	0.036419	0.991315	3.741219	14.025646	176.206496	-0.968062	0.064188	-0.242356	-0.081799	-0.994636	0.063305	-0.236993	0.081108	0.968120
59022	30427249	-2.357767	0.678302	9.544260	-0.032826	-0.052186	0.053064	0.004701	0.016585	0.003596				-0.005894	0.001696	0.023861	1.000000	0.000006	0.000021	0.000004	0.036816	-0.120902	0.036426	0.991313	3.741898	14.027360	176.206670	-0.968055	0.064185	-0.242385	-0.081801	-0.994635	0.063316	-0.237021	0.081121	0.968112
59023	30427274	-2.423779	0.685367	9.488387	0.043090	-0.067714	0.015424	0.008100	0.022890	-0.001153	-0.164867	-0.500877	-0.413681	-0.006059	0.001713	0.023721	1.000000	0.000010	0.000029	-0.000001	0.036822	-0.120924	0.036435	0.991309	3.742908	14.030020	176.206189	-0.968043	0.064192	-0.242430	-0.081816	-0.994633	0.063332	-0.237064	0.081143	0.968099
59024	30427299	-2.385614	0.570701	9.598430	-0.010807	0.057516	0.105441	-0.002959	0.019875	0.003539				-0.005963	0.001427	0.023996	1.000000	-0.000004	0.000025	0.000004	0.036821	-0.120944	0.036432	0.991307	3.742496	14.032205	176.206386	-0.968034	0.064188	-0.242467	-0.081813	-0.994634	0.063325	-0.237101	0.081137	0.968091
59025	30427324	-2.407329	0.638526	9.502880	0.026894	-0.019130	0.022501	-0.003907	0.021456	0.007290				-0.006018	0.001596	0.023757	1.000000	-0.000005	0.000027	0.000009	0.036814	-0.120964	0.036428	0.991305	3.742085	14.034581	176.207151	-0.968025	0.064175	-0.242507	-0.081801	-0.994635	0.063317	-0.237143	0.081130	0.968081
59026	30427349	-2.393552	0.655054	9.504260	0.011439	-0.034595	0.021543	-0.001632	0.021785	0.000213				-0.005983	0.001638	0.023761	1.000000	-0.000002	0.000027	0.000000	0.036817	-0.120986	0.036426	0.991302	3.741748	14.037070	176.206877	-0.968014	0.064179	-0.242550	-0.081807	-0.994635	0.063311	-0.237185	0.081128	0.968071
59027	30427374	-2.415694	0.632899	9.538765	0.026070	-0.011251	0.058913	-0.004393	0.018358	0.003335	-0.163931	-0.501858	-0.414197	-0.006039	0.001582	0.023847	1.000000	-0.000005	0.000023	0.000004	0.036815	-0.121003	0.036421	0.991300	3.741119	14.039040	176.207030	-0.968006	0.064176	-0.242583	-0.081804	-0.994636	0.063300	-0.237220	0.081119	0.968063
59028	30427399	-2.385357	0.599990	9.508068	0.006363	0.020878	0.019753	-0.002117	0.020261	-0.000165				-0.005963	0.001500	0.023770	1.000000	-0.000003	0.000025	-0.000000	0.036818	-0.121023	0.036419	0.991298	3.740695	14.041315	176.206685	-0.967996	0.064181	-0.242621	-0.081811	-0.994636	0.063292	-0.237258	0.081115	0.968054
59029	30427424	-2.359202	0.606793	9.517427	-0.022050	0.016504	0.022897	-0.001401	0.018075	-0.002535				-0.005897	0.001517	0.023794	1.000000	-0.000002	0.000023	-0.000003	0.036825	-0.121040	0.036416	0.991296	3.740284	14.043300	176.205970	-0.967986	0.064192	-0.242655	-0.081824	-0.994636	0.063284	-0.237291	0.081113	0.968046
59030	30427449	-2.350907	0.604079	9.514765	-0.029540	0.019467	0.018135	-0.002433	0.017497	0.000966				-0.005877	0.001510	0.023787	1.000000	-0.000003	0.000022	0.000001	0.036826	-0.121056	0.036413	0.991294	3.739849	14.045169	176.205766	-0.967978	0.064195	-0.242687	-0.081827	-0.994636	0.063276	-0.237323	0.081109	0.968039
59031	30427474	-2.371568	0.590360	9.506735	-0.007092	0.031246	0.014505	0.000611	0.021176	0.001487	-0.164037	-0.499947	-0.416157	-0.005928	0.001476	0.023767	1.000000	0.000001	0.000026	0.000002	0.036828	-0.121077	0.036414	0.991291	3.739877	14.047559	176.205664	-0.967968	0.064196	-0.242727	-0.081832	-0.994635	0.063276	-0.237363	0.081112	0.968029
59032	30427499	-2.379914	0.602595	9.537357	-0.007630	0.020985	0.046948	-0.000666	0.022256	0.002110				-0.005949	0.001506	0.023844	1.000000	-0.000001	0.000028	0.000003	0.036828	-0.121099	0.036414	0.991288	3.739747	14.050098	176.205674	-0.967957	0.064195	-0.242770	-0.081834	-0.994635	0.063273	-0.237406	0.081113	0.968018
59033	30427524	-2.408762	0.622001	9.508136	0.025240	-0.002593	0.026895	-0.002854	0.021408	0.004287				-0.006021	0.001555	0.023770	1.000000	-0.000004	0.000027	0.000005	0.036826	-0.121120	0.036411	0.991286	3.739380	14.052495	176.205996	-0.967948	0.064189	-0.242811	-0.081830	-0.994636	0.063266	-0.237447	0.081108	0.968008
59034	30427549	-2.379796	0.617924	9.488184	0.001813	0.001639	0.000290	-0.003093	0.022440	0.001331				-0.005949	0.001545	0.023721	1.000000	-0.000004	0.000028	0.000002	0.036827	-0.121142	0.036407	0.991283	3.738875	14.055067	176.205893	-0.967937	0.064190	-0.242854	-0.081832	-0.994637	0.063257	-0.237491	0.081102	0.967998
59035	30427574	-2.364568	0.631715	9.480265	-0.012758	-0.011854	-0.010206	-0.005075	0.022404	-0.001444	-0.164498	-0.500419	-0.416156	-0.005911	0.001579	0.023701	1.000000	-0.000006	0.000028	-0.000002	0.036831	-0.121165	0.036401	0.991281	3.737986	14.057660	176.205380	-0.967925	0.064198	-0.242898	-0.081840	-0.994637	0.063241	-0.237536	0.081092	0.967988
59036	30427599	-2.361812	0.630359	9.481585	-0.016004	-0.010342	-0.009684	-0.005251	0.023474	0.002384				-0.005904	0.001576	0.023704	1.000000	-0.000007	0.000029	0.000003	0.036830	-0.121189	0.036395	0.991278	3.737212	14.060370	176.205442	-0.967914	0.064196	-0.242944	-0.081839	-0.994638	0.063228	-0.237582	0.081081	0.967977
59037	30427624	-2.361798	0.641378	9.481625	-0.017265	-0.021161	-0.008952	0.002570	0.019981	-0.001383				-0.005904	0.001603	0.023704	1.000000	0.000003	0.000025	-0.000002	0.036835	-0.121208	0.036398	0.991275	3.737416	14.062616	176.204915	-0.967904	0.064205	-0.242982	-0.081851	-0.994637	0.063230	-0.237619	0.081089	0.967968
59038	30427649	-2.337011	0.642699	9.486960	-0.043141	-0.020531	-0.009730	-0.001483	0.023150	-0.002101				-0.005842	0.001607	0.023718	1.000000	-0.000002	0.000029	-0.000003	0.036841	-0.121231	0.036395	0.991272	3.737020	14.065322	176.204313	-0.967892	0.064214	-0.243028	-0.081863	-0.994636	0.063223	-0.237665	0.081088	0.967957
59039	30427674	-2.371553	0.630272	9.505515	-0.013680	-0.008862	0.015837	-0.002323	0.023109	0.003536	-0.163578	-0.500439	-0.416662	-0.005928	0.001576	0.023764	1.000000	-0.000003	0.000029	0.000004	0.036839	-0.121254	0.036393	0.991270	3.736706	14.067970	176.204537	-0.967881	0.064210	-0.243073	-0.081861	-0.994637	0.063217	-0.237710	0.081085	0.967946
59040	30427699	-2.371511	0.637162	9.506886	-0.015035	-0.015652	0.017589	-0.002106	0.025056	0.002655				-0.005928	0.001593	0.023767	1.000000	-0.000003	0.000031	0.000003	0.036839	-0.121280	0.036391	0.991267	3.736396	14.070903	176.204653	-0.967868	0.064207	-0.243122	-0.081861	-0.994637	0.063211	-0.237760	0.081082	0.967934
59041	30427724	-2.364555	0.641350	9.476299	-0.015319	-0.022076	-0.013446	-0.007559	0.024025	0.001487				-0.005911	0.001604	0.023691	1.000000	-0.000009	0.000030	0.000002	0.036839	-0.121304	0.036382	0.991264	3.735260	14.073701	176.204588	-0.967856	0.064207	-0.243170	-0.081860	-0.994639	0.063191	-0.237809	0.081066	0.967923
59042	30427749	-2.352180	0.594638	9.464185	-0.021069	0.024168	-0.031133	-0.004068	0.023966	0.001703				-0.005880	0.001487	0.023661	1.000000	-0.000005	0.000030	0.000002	0.036839	-0.121329	0.036377	0.991261	3.734632	14.076488	176.204554	-0.967844	0.064207	-0.243217	-0.081861	-0.994639	0.063180	-0.237857	0.081058	0.967912
59043	30427774	-2.345320	0.604211	9.484173	-0.033846	0.016816	-0.012854	-0.000316	0.023983	0.002734	-0.164002	-0.500906	-0.415671	-0.005863	0.001511	0.023711	1.000000	-0.000000	0.000030	0.000003	0.036839	-0.121353	0.036377	0.991258	3.734579	14.079267	176.204672	-0.967833	0.064204	-0.243264	-0.081862	-0.994639	0.063178	-0.237904	0.081060	0.967900
59044	30427799	-2.350789	0.631775	9.473615	-0.028574	-0.011907	-0.020002	-0.003411	0.021507	0.006166				-0.005876	0.001579	0.023684	1.000000	-0.000004	0.000027	0.000008	0.036834	-0.121374	0.036374	0.991256	3.734200	14.081661	176.205272	-0.967823	0.064193	-0.243305	-0.081853	-0.994640	0.063171	-0.237945	0.081053	0.967891
59045	30427824	-2.364609	0.624815	9.490880	-0.019301	-0.004419	-0.000370	0.000824	0.025228	-0.002278				-0.005911	0.001562	0.023727	1.000000	0.000001	0.000032	-0.000003	0.036840	-0.121400	0.036375	0.991253	3.734133	14.084666	176.204664	-0.967810	0.064203	-0.243355	-0.081866	-0.994639	0.063169	-0.237995	0.081058	0.967878
59046	30427849	-2.334189	0.630458	9.451010	-0.040310	-0.011265	-0.046008	0.000677	0.027737	0.000042				-0.005835	0.001576	0.023628	1.000000	0.000001	0.000035	0.000000	0.036842	-0.121428	0.036376	0.991249	3.734134	14.088007	176.204421	-0.967796	0.064206	-0.243412	-0.081874	-0.994639	0.063168	-0.238051	0.081063	0.967864
59047	30427874	-2.267904	0.649879	9.404555	-0.095902	-0.030156	-0.105888	-0.003006	0.033325	-0.003126	-0.163978	-0.502347	-0.415685	-0.005669	0.001625	0.023512	1.000000	-0.000004	0.000042	-0.000004	0.036849	-0.121465	0.036372	0.991244	3.733507	14.092177	176.203749	-0.967777	0.064216	-0.243483	-0.081888	-0.994638	0.063156	-0.238121	0.081059	0.967847
59048	30427899	-2.288557	0.632039	9.397839	-0.073490	-0.014512	-0.108491	-0.007188	0.033912	-0.002533				-0.005720	0.001580	0.023495	1.000000	-0.000009	0.000042	-0.000003	0.036853	-0.121501	0.036364	0.991240	3.732303	14.096425	176.203187	-0.967758	0.064224	-0.243554	-0.081897	-0.994639	0.063135	-0.238194	0.081046	0.967830
59049	30427924	-2.278957	0.616869	9.400452	-0.082934	0.001274	-0.109264	-0.007328	0.035271	-0.000401				-0.005696	0.001542	0.023501	1.000000	-0.000009	0.000044	-0.000001	0.036855	-0.121540	0.036355	0.991236	3.731159	14.100847	176.202951	-0.967739	0.064227	-0.243629	-0.081902	-0.994640	0.063114	-0.238270	0.081032	0.967813
59050	30427949	-2.266635	0.615414	9.425725	-0.101489	0.005510	-0.087907	-0.004098	0.034340	-0.003137				-0.005666	0.001539	0.023565	1.000000	-0.000005	0.000043	-0.000004	0.036861	-0.121577	0.036350	0.991231	3.730378	14.105162	176.202303	-0.967720	0.064237	-0.243702	-0.081914	-0.994640	0.063100	-0.238343	0.081026	0.967795
59051	30427974	-2.251449	0.652440	9.445817	-0.125091	-0.028667	-0.069843	-0.001799	0.040337	-0.004500	-0.164430	-0.503299	-0.415687	-0.005627	0.001631	0.023615	1.000000	-0.000002	0.000050	-0.000006	0.036869	-0.121622	0.036348	0.991225	3.729890	14.110347	176.201512	-0.967698	0.064249	-0.243790	-0.081932	-0.994639	0.063090	-0.238430	0.081026	0.967774
59052	30427999	-2.268067	0.609819	9.449652	-0.107346	0.012861	-0.064778	-0.002956	0.043705	-0.007276				-0.005669	0.001525	0.023624	1.000000	-0.000004	0.000055	-0.000009	0.036879	-0.121671	0.036344	0.991219	3.729145	14.116039	176.200344	-0.967672	0.064267	-0.243886	-0.081955	-0.994638	0.063076	-0.238525	0.081025	0.967750
59053	30428024	-2.327340	0.605612	9.465570	-0.054549	0.014501	-0.035186	-0.002936	0.047481	-0.004771				-0.005817	0.001514	0.023664	1.000000	-0.000004	0.000059	-0.000006	0.036887	-0.121725	0.036341	0.991212	3.728502	14.122247	176.199581	-0.967645	0.064278	-0.243992	-0.081972	-0.994637	0.063063	-0.238630	0.081024	0.967725
59054	30428049	-2.394983	0.634335	9.517487	-0.004857	-0.014251	0.033372	-0.002782	0.045948	-0.005336				-0.005986	0.001586	0.023794	1.000000	-0.000003	0.000057	-0.000007	0.036895	-0.121777	0.036338	0.991206	3.727856	14.128242	176.198720	-0.967618	0.064291	-0.244093	-0.081991	-0.994637	0.063051	-0.238730	0.081023	0.967700
59055	30428074	-2.426654	0.646723	9.520184	0.022784	-0.028459	0.044495	-0.005631	0.050859	-0.003292	-0.164004	-0.501869	-0.416175	-0.006065	0.001617	0.023801	1.000000	-0.000007	0.000064	-0.000004	0.036900	-0.121835	0.036332	0.991199	3.726888	14.134919	176.198208	-0.967589	0.064298	-0.244206	-0.082003	-0.994637	0.063033	-0.238843	0.081015	0.967673
59056	30428099	-2.411498	0.654946	9.532184	0.003650	-0.034882	0.052923	-0.006115	0.047049	-0.008000				-0.006027	0.001638	0.023831	1.000000	-0.000008	0.000059	-0.000010	0.036911	-0.121888	0.036324	0.991192	3.725671	14.141096	176.196965	-0.967562	0.064317	-0.244311	-0.082027	-0.994636	0.063010	-0.238948	0.081006	0.967648
59057	30428124	-2.418335	0.657813	9.504251	0.015659	-0.040660	0.027746	-0.008334	0.046146	-0.009146				-0.006044	0.001645	0.023761	1.000000	-0.000010	0.000058	-0.000011	0.036923	-0.121941	0.036314	0.991185	3.724093	14.147154	176.195544	-0.967534	0.064339	-0.244413	-0.082052	-0.994636	0.062982	-0.239050	0.080992	0.967624
59058	30428149	-2.425349	0.588947	9.512010	0.025121	0.027882	0.032635	-0.007026	0.048122	-0.008136				-0.006062	0.001473	0.023780	1.000000	-0.000009	0.000060	-0.000010	0.036934	-0.121995	0.036305	0.991179	3.722744	14.153485	176.194291	-0.967506	0.064359	-0.244520	-0.082075	-0.994636	0.062957	-0.239157	0.080981	0.967598
59059	30428174	-2.408823	0.584782	9.530628	0.003869	0.034590	0.046344	-0.004686	0.046465	-0.004788	-0.163535	-0.501878	-0.416181	-0.006021	0.001462	0.023827	1.000000	-0.000006	0.000058	-0.000006	0.036941	-0.122048	0.036299	0.991172	3.721846	14.159548	176.193515	-0.967479	0.064370	-0.244623	-0.082091	-0.994635	0.062941	-0.239259	0.080975	0.967573
59060	30428199	-2.414355	0.566937	9.511929	0.014094	0.050241	0.028485	-0.007425	0.049457	-0.007701				-0.006034	0.001418	0.023780	1.000000	-0.000009	0.000062	-0.000010	0.036952	-0.122104	0.036290	0.991165	3.720457	14.166066	176.192339	-0.967450	0.064388	-0.244733	-0.082113	-0.994635	0.062915	-0.239369	0.080963	0.967547
59061	30428224	-2.395100	0.565490	9.525250	-0.008740	0.053900	0.036569	-0.006336	0.049807	-0.005682				-0.005986	0.001414	0.023813	1.000000	-0.000008	0.000062	-0.000007	0.036960	-0.122161	0.036283	0.991158	3.719299	14.172615	176.191463	-0.967421	0.064401	-0.244844	-0.082130	-0.994635	0.062894	-0.239480	0.080954	0.967520
59062	30428249	-2.401895	0.615039	9.525417	-0.007410	0.004074	0.041509	-0.005966	0.049658	-0.007249				-0.006003	0.001538	0.023814	1.000000	-0.000007	0.000062	-0.000009	0.036970	-0.122218	0.036276	0.991151	3.718136	14.179158	176.190354	-0.967392	0.064418	-0.244955	-0.082152	-0.994635	0.062873	-0.239590	0.080946	0.967494
59063	30428274	-2.419847	0.599878	9.533332	0.008214	0.018838	0.052611	0.002831	0.045364	-0.009626	-0.162109	-0.501902	-0.415704	-0.006048	0.001500	0.023834	1.000000	0.000004	0.000057	-0.000012	0.036984	-0.122269	0.036279	0.991144	3.718137	14.185108	176.188850	-0.967365	0.064441	-0.245055	-0.082184	-0.994632	0.062871	-0.239688	0.080959	0.967468
59064	30428299	-2.414441	0.555826	9.541167	0.003796	0.063731	0.056097	0.003670	0.046110	-0.006294				-0.006035	0.001390	0.023853	1.000000	0.000005	0.000058	-0.000008	0.036994	-0.122321	0.036283	0.991137	3.718380	14.191135	176.187848	-0.967338	0.064457	-0.245157	-0.082209	-0.994630	0.062873	-0.239788	0.080974	0.967442
59065	30428324	-2.439202	0.581987	9.537255	0.025377	0.035990	0.060031	0.005148	0.049818	-0.004214				-0.006097	0.001455	0.023844	1.000000	0.000006	0.000062	-0.000005	0.037002	-0.122377	0.036290	0.991130	3.718919	14.197672	176.187189	-0.967310	0.064466	-0.245268	-0.082230	-0.994628	0.062881	-0.239897	0.080993	0.967414
59066	30428349	-2.440520	0.609545	9.525378	0.026054	0.007622	0.050601	0.003211	0.051381	-0.005421				-0.006100	0.001524	0.023814	1.000000	0.000004	0.000064	-0.000007	0.037011	-0.122435	0.036295	0.991122	3.719140	14.204444	176.186366	-0.967280	0.064478	-0.245383	-0.082253	-0.994626	0.062882	-0.240009	0.081008	0.967385
59067	30428374	-2.455658	0.616456	9.522718	0.039539	-0.000305	0.052179	0.003107	0.049724	-0.005928	-0.162533	-0.502368	-0.414713	-0.006138	0.001541	0.023807	1.000000	0.000004	0.000062	-0.000007	0.037021	-0.122491	0.036299	0.991114	3.719324	14.210983	176.185453	-0.967251	0.064491	-0.245493	-0.082277	-0.994624	0.062884	-0.240118	0.081023	0.967357
59068	30428399	-2.472226	0.606757	9.539983	0.051365	0.009868	0.072343	0.004153	0.046161	0.005007				-0.006179	0.001517	0.023850	1.000000	0.000005	0.000058	0.000006	0.037017	-0.122542	0.036306	0.991108	3.720046	14.216912	176.186118	-0.967226	0.064478	-0.245594	-0.082275	-0.994623	0.062894	-0.240218	0.081039	0.967330
59069	30428424	-2.437759	0.604047	9.528020	0.019968	0.013863	0.052137	0.001933	0.049391	-0.002988				-0.006093	0.001510	0.023820	1.000000	0.000002	0.000062	-0.000004	0.037023	-0.122598	0.036309	0.991101	3.720167	14.223376	176.185635	-0.967198	0.064485	-0.245703	-0.082291	-0.994622	0.062895	-0.240326	0.081051	0.967303
59070	30428449	-2.450203	0.608094	9.546642	0.026206	0.010700	0.073465	0.003093	0.046402	0.000232				-0.006124	0.001520	0.023867	1.000000	0.000004	0.000058	0.000000	0.037026	-0.122650	0.036314	0.991094	3.720564	14.229384	176.185599	-0.967172	0.064484	-0.245805	-0.082300	-0.994621	0.062900	-0.240426	0.081064	0.967276
59071	30428474	-2.465367	0.592992	9.537269	0.043199	0.023982	0.067184	-0.000988	0.046292	-0.002944	-0.162093	-0.502863	-0.415713	-0.006162	0.001483	0.023844	1.000000	-0.000001	0.000058	-0.000004	0.037031	-0.122702	0.036314	0.991087	3.720262	14.235405	176.185075	-0.967146	0.064491	-0.245906	-0.082314	-0.994620	0.062893	-0.240527	0.081068	0.967251
59072	30428499	-2.422555	0.601345	9.510726	0.006758	0.016294	0.031507	0.000541	0.040956	-0.004244				-0.006055	0.001503	0.023777	1.000000	0.000001	0.000051	-0.000005	0.037039	-0.122747	0.036315	0.991081	3.720118	14.240676	176.184326	-0.967122	0.064502	-0.245996	-0.082332	-0.994619	0.062889	-0.240615	0.081075	0.967229
59073	30428524	-2.447488	0.561352	9.537175	0.026755	0.056768	0.060710	0.004014	0.044852	-0.005598				-0.006117	0.001403	0.023843	1.000000	0.000005	0.000056	-0.000007	0.037048	-0.122798	0.036320	0.991075	3.720432	14.246516	176.183415	-0.967096	0.064516	-0.246094	-0.082356	-0.994617	0.062893	-0.240712	0.081090	0.967203
59074	30428154																																			
59075	30428154																																			
59076	30428549	-2.433604	0.624680	9.525427	0.010196	-0.006039	0.049914	0.006582	0.038473	-0.000487				-0.006083	0.001562	0.023814	1.000000	0.000008	0.000048	-0.000001	0.037052	-0.122839	0.036329	0.991069	3.721284	14.251397	176.183196	-0.967075	0.064518	-0.246177	-0.082368	-0.994615	0.062906	-0.240793	0.081112	0.967181
59077	30428574	-2.419656	0.649665	9.473649	0.006344	-0.035792	-0.002009	0.004029	0.039166	-0.000760	-0.163021	-0.502362	-0.415202	-0.006048	0.001624	0.023684	1.000000	0.000005	0.000049	-0.000001	0.037139	-0.122875	0.036321	0.991062	3.718950	14.255813	176.173004	-0.967045	0.064689	-0.246252	-0.082540	-0.994603	0.062865	-0.240856	0.081119	0.967165
59078	30428599	-2.396215	0.644169	9.465657	-0.014787	-0.029419	-0.015859	0.003432	0.041430	-0.006227				-0.005989	0.001610	0.023664	1.000000	0.000004	0.000052	-0.000008	0.037150	-0.122921	0.036325	0.991055	3.719149	14.261170	176.171967	-0.967021	0.064705	-0.246342	-0.082565	-0.994601	0.062867	-0.240944	0.081133	0.967142
59079	30428624	-2.414106	0.653812	9.460361	0.001978	-0.040499	-0.015966	0.002518	0.044522	-0.003032				-0.006034	0.001634	0.023651	1.000000	0.000003	0.000056	-0.000004	0.037156	-0.122971	0.036329	0.991049	3.719341	14.266939	176.171431	-0.966995	0.064712	-0.246440	-0.082581	-0.994599	0.062868	-0.241041	0.081145	0.967117
59080	30428649	-2.400292	0.677204	9.468428	-0.016039	-0.062072	-0.010099	0.004321	0.039130	-0.003330				-0.006000	0.001693	0.023671	1.000000	0.000005	0.000049	-0.000004	0.037163	-0.123014	0.036334	0.991043	3.719768	14.271940	176.170799	-0.966973	0.064721	-0.246524	-0.082600	-0.994597	0.062874	-0.241123	0.081161	0.967095
59081	30428674	-2.372756	0.657905	9.467055	-0.041651	-0.041120	-0.019435	0.001878	0.037241	-0.003345	-0.162521	-0.500922	-0.413711	-0.005931	0.001645	0.023668	1.000000	0.000002	0.000047	-0.000004	0.037170	-0.123054	0.036337	0.991038	3.719839	14.276671	176.170136	-0.966952	0.064731	-0.246604	-0.082617	-0.994596	0.062874	-0.241202	0.081170	0.967075
59082	30428699	-2.390746	0.608439	9.456224	-0.018287	0.005980	-0.028583	-0.001226	0.038096	-0.000927				-0.005976	0.001521	0.023641	1.000000	-0.000002	0.000048	-0.000001	0.037173	-0.123096	0.036336	0.991032	3.719555	14.281502	176.169849	-0.966931	0.064735	-0.246686	-0.082626	-0.994596	0.062868	-0.241283	0.081172	0.967054
59083	30428724	-2.396292	0.638554	9.489588	-0.024414	-0.021452	0.006941	0.002906	0.041716	-0.000329				-0.005989	0.001596	0.023724	1.000000	0.000004	0.000052	-0.000000	0.037177	-0.123142	0.036340	0.991026	3.719894	14.286845	176.169685	-0.966908	0.064736	-0.246777	-0.082636	-0.994595	0.062872	-0.241373	0.081184	0.967031
59084	30428749	-2.375546	0.652395	9.476348	-0.043253	-0.034945	-0.010116	0.001565	0.039014	-0.006869				-0.005938	0.001631	0.023691	1.000000	0.000002	0.000049	-0.000009	0.037188	-0.123185	0.036342	0.991021	3.719796	14.291863	176.168530	-0.966885	0.064754	-0.246861	-0.082661	-0.994593	0.062869	-0.241456	0.081193	0.967009
59085	30428774	-2.382411	0.659298	9.469701	-0.036751	-0.042774	-0.014422	-0.002155	0.044298	-0.001690	-0.162069	-0.499970	-0.413708	-0.005955	0.001648	0.023675	1.000000	-0.000003	0.000055	-0.000002	0.037192	-0.123235	0.036340	0.991014	3.719367	14.297587	176.168189	-0.966860	0.064758	-0.246958	-0.082671	-0.994592	0.062860	-0.241552	0.081194	0.966985
59086	30428799	-2.394793	0.679943	9.463105	-0.025787	-0.064833	-0.016447	-0.005357	0.044233	-0.005732				-0.005986	0.001700	0.023658	1.000000	-0.000007	0.000055	-0.000007	0.037200	-0.123285	0.036334	0.991008	3.718331	14.303340	176.167252	-0.966834	0.064772	-0.247056	-0.082690	-0.994592	0.062841	-0.241649	0.081186	0.966962
59087	30428824	-2.373964	0.717234	9.432656	-0.042710	-0.103193	-0.048700	-0.005613	0.045748	-0.010192				-0.005934	0.001793	0.023582	1.000000	-0.000007	0.000057	-0.000013	0.037214	-0.123337	0.036326	0.991001	3.717099	14.309351	176.165671	-0.966806	0.064797	-0.247157	-0.082718	-0.994591	0.062819	-0.241750	0.081178	0.966937
59088	30428849	-2.367219	0.660709	9.453762	-0.050555	-0.044990	-0.033515	-0.004339	0.041324	-0.017709				-0.005917	0.001652	0.023635	1.000000	-0.000005	0.000052	-0.000022	0.037237	-0.123383	0.036319	0.990995	3.715765	14.314799	176.162939	-0.966780	0.064842	-0.247249	-0.082766	-0.994589	0.062795	-0.241840	0.081173	0.966915
59089	30428874	-2.349290	0.663472	9.451116	-0.068780	-0.047082	-0.040345	-0.011435	0.047746	-0.012560	-0.162032	-0.499964	-0.412719	-0.005872	0.001659	0.023628	1.000000	-0.000014	0.000060	-0.000016	0.037253	-0.123438	0.036304	0.990988	3.713618	14.321118	176.161010	-0.966750	0.064872	-0.247356	-0.082797	-0.994588	0.062757	-0.241946	0.081151	0.966890
59090	30428899	-2.383825	0.646897	9.477637	-0.041389	-0.030856	-0.007201	-0.006433	0.046483	-0.015785				-0.005958	0.001618	0.023694	1.000000	-0.000008	0.000058	-0.000020	0.037274	-0.123491	0.036295	0.990981	3.712066	14.327285	176.158610	-0.966721	0.064911	-0.247460	-0.082839	-0.994587	0.062729	-0.242049	0.081141	0.966865
59091	30428924	-2.360469	0.626127	9.498877	-0.068426	-0.007121	0.006244	-0.004798	0.045346	-0.019598				-0.005900	0.001566	0.023748	1.000000	-0.000006	0.000057	-0.000024	0.037299	-0.123543	0.036287	0.990974	3.710606	14.333325	176.155637	-0.966692	0.064959	-0.247563	-0.082891	-0.994584	0.062703	-0.242149	0.081135	0.966841
59092	30428949	-2.371476	0.626196	9.481565	-0.054806	-0.009420	-0.007770	-0.006127	0.050512	-0.009319				-0.005927	0.001566	0.023704	1.000000	-0.000008	0.000063	-0.000012	0.037312	-0.123601	0.036279	0.990966	3.709343	14.340009	176.154230	-0.966661	0.064981	-0.247676	-0.082918	-0.994583	0.062679	-0.242261	0.081126	0.966813
59093	30428974	-2.364388	0.673225	9.425866	-0.053424	-0.060178	-0.060439	-0.001688	0.053145	-0.010481	-0.162026	-0.501408	-0.413227	-0.005909	0.001683	0.023565	1.000000	-0.000002	0.000066	-0.000013	0.037326	-0.123662	0.036277	0.990958	3.708679	14.347080	176.152676	-0.966629	0.065005	-0.247795	-0.082950	-0.994581	0.062666	-0.242379	0.081129	0.966784
59094	30428999	-2.375462	0.649756	9.435099	-0.044212	-0.036977	-0.050244	-0.005086	0.055566	-0.010008				-0.005937	0.001625	0.023588	1.000000	-0.000006	0.000069	-0.000013	0.037339	-0.123726	0.036271	0.990950	3.707551	14.354492	176.151214	-0.966595	0.065028	-0.247920	-0.082978	-0.994580	0.062645	-0.242503	0.081124	0.966753
59095	30429024	-2.422470	0.615189	9.490816	-0.010686	-0.001259	0.013110	-0.005828	0.055191	-0.009388				-0.006055	0.001538	0.023727	1.000000	-0.000007	0.000069	-0.000012	0.037352	-0.123789	0.036263	0.990942	3.706339	14.361845	176.149841	-0.966562	0.065049	-0.248045	-0.083005	-0.994580	0.062623	-0.242627	0.081118	0.966722
59096	30429049	-2.396475	0.581992	9.530615	-0.044164	0.036496	0.043051	-0.006153	0.059380	-0.017051				-0.005989	0.001455	0.023827	1.000000	-0.000008	0.000074	-0.000021	0.037373	-0.123858	0.036255	0.990933	3.704810	14.369867	176.147377	-0.966525	0.065088	-0.248180	-0.083050	-0.994578	0.062594	-0.242761	0.081111	0.966689
59097	30429074	-2.392289	0.582068	9.510665	-0.044787	0.035077	0.022725	-0.003800	0.057092	-0.013199	-0.161171	-0.501920	-0.415716	-0.005979	0.001455	0.023777	1.000000	-0.000005	0.000071	-0.000016	0.037391	-0.123924	0.036250	0.990924	3.703752	14.377527	176.145441	-0.966489	0.065119	-0.248310	-0.083088	-0.994576	0.062575	-0.242888	0.081109	0.966657
59098	30429099	-2.388031	0.656411	9.509587	-0.056248	-0.038763	0.025269	-0.002839	0.062685	-0.015773				-0.005968	0.001641	0.023774	1.000000	-0.000004	0.000078	-0.000020	0.037411	-0.123997	0.036246	0.990914	3.702751	14.386010	176.143196	-0.966450	0.065154	-0.248453	-0.083132	-0.994573	0.062555	-0.243029	0.081111	0.966622
59099	30429124	-2.422407	0.696339	9.508380	-0.027670	-0.080868	0.035138	-0.002594	0.066720	-0.016652				-0.006054	0.001741	0.023771	1.000000	-0.000003	0.000083	-0.000021	0.037433	-0.124075	0.036242	0.990904	3.701762	14.395078	176.140860	-0.966408	0.065191	-0.248607	-0.083178	-0.994571	0.062536	-0.243180	0.081114	0.966584
59100	30429149	-2.444423	0.686778	9.479070	0.000168	-0.075249	0.011684	-0.002697	0.061281	-0.016397				-0.006109	0.001717	0.023698	1.000000	-0.000003	0.000077	-0.000020	0.037454	-0.124147	0.036238	0.990894	3.700754	14.403366	176.138509	-0.966370	0.065228	-0.248747	-0.083223	-0.994568	0.062517	-0.243318	0.081116	0.966549
59101	30429174	-2.404495	0.659249	9.482992	-0.038624	-0.045050	0.003810	-0.003433	0.060423	-0.022741	-0.160278	-0.501463	-0.416712	-0.006009	0.001648	0.023708	1.000000	-0.000004	0.000076	-0.000028	0.037483	-0.124217	0.036232	0.990885	3.699406	14.411590	176.135214	-0.966330	0.065281	-0.248886	-0.083284	-0.994565	0.062492	-0.243453	0.081116	0.966515
59102	30429199	-2.386656	0.653656	9.508256	-0.063069	-0.036443	0.023427	-0.003053	0.065541	-0.027327				-0.005965	0.001634	0.023771	1.000000	-0.000004	0.000082	-0.000034	0.037517	-0.124294	0.036226	0.990874	3.697955	14.420588	176.131290	-0.966287	0.065345	-0.249038	-0.083355	-0.994560	0.062465	-0.243601	0.081117	0.966477
59103	30429224	-2.414256	0.634328	9.517488	-0.038544	-0.018316	0.038012	-0.002150	0.064769	-0.019974				-0.006034	0.001586	0.023794	1.000000	-0.000003	0.000081	-0.000025	0.037543	-0.124370	0.036222	0.990864	3.696901	14.429408	176.128444	-0.966245	0.065390	-0.249187	-0.083410	-0.994557	0.062444	-0.243747	0.081121	0.966440
59104	30429249	-2.447443	0.602638	9.537308	-0.010352	0.012606	0.063458	-0.002015	0.069298	-0.017656				-0.006117	0.001507	0.023844	1.000000	-0.000003	0.000087	-0.000022	0.037566	-0.124451	0.036219	0.990853	3.695962	14.438853	176.125983	-0.966201	0.065429	-0.249347	-0.083459	-0.994554	0.062426	-0.243904	0.081126	0.966400
59105	30429274	-2.440530	0.591681	9.518654	-0.013466	0.022363	0.043021	-0.003202	0.072689	-0.023569	-0.160763	-0.500493	-0.416698	-0.006099	0.001479	0.023797	1.000000	-0.000004	0.000091	-0.000029	0.037595	-0.124537	0.036214	0.990841	3.694642	14.448838	176.122670	-0.966154	0.065482	-0.249515	-0.083522	-0.994550	0.062401	-0.244069	0.081129	0.966358
59106	30429299	-2.393612	0.601356	9.508068	-0.058534	0.014847	0.021675	-0.002515	0.070050	-0.022426				-0.005982	0.001504	0.023771	1.000000	-0.000003	0.000088	-0.000028	0.037624	-0.124619	0.036210	0.990830	3.693457	14.458435	176.119511	-0.966109	0.065532	-0.249678	-0.083582	-0.994547	0.062378	-0.244228	0.081133	0.966318
59107	30429324	-2.466693	0.601339	9.520008	0.007417	0.011115	0.051465	0.001265	0.072537	-0.020526				-0.006165	0.001503	0.023801	1.000000	0.000002	0.000091	-0.000026	0.037650	-0.124704	0.036211	0.990818	3.692888	14.468370	176.116657	-0.966063	0.065577	-0.249845	-0.083640	-0.994543	0.062366	-0.244392	0.081146	0.966275
59108	30429349	-2.490168	0.643811	9.574665	0.011317	-0.028238	0.112795	0.001730	0.075795	-0.026739				-0.006223	0.001610	0.023937	1.000000	0.000002	0.000095	-0.000033	0.037684	-0.124794	0.036211	0.990805	3.692164	14.478828	176.112915	-0.966013	0.065637	-0.250022	-0.083713	-0.994537	0.062351	-0.244564	0.081162	0.966230
59109	30429374	-2.509446	0.661690	9.570725	0.027502	-0.047706	0.114926	-0.003538	0.074795	-0.022320	-0.161628	-0.500464	-0.414708	-0.006271	0.001655	0.023927	1.000000	-0.000004	0.000093	-0.000028	0.037712	-0.124882	0.036206	0.990793	3.690845	14.489102	176.109817	-0.965964	0.065687	-0.250196	-0.083772	-0.994534	0.062325	-0.244734	0.081164	0.966187
59110	30429399	-2.509437	0.657601	9.564067	0.027683	-0.043966	0.108243	0.005852	0.078081	-0.021935				-0.006271	0.001644	0.023911	1.000000	0.000007	0.000098	-0.000027	0.037741	-0.124974	0.036212	0.990780	3.690893	14.499842	176.106806	-0.965914	0.065734	-0.250377	-0.083836	-0.994529	0.062323	-0.244911	0.081190	0.966140
59111	30429424	-2.579772	0.660256	9.585313	0.088266	-0.049503	0.146568	0.003944	0.079054	-0.028355				-0.006447	0.001651	0.023964	1.000000	0.000005	0.000099	-0.000035	0.037777	-0.125068	0.036215	0.990767	3.690432	14.510780	176.102856	-0.965862	0.065797	-0.250562	-0.083915	-0.994523	0.062312	-0.245090	0.081211	0.966093
59112	30429449	-2.556342	0.712455	9.613432	0.052556	-0.097489	0.171124	0.005150	0.076427	-0.026523				-0.006389	0.001781	0.024034	1.000000	0.000006	0.000096	-0.000033	0.037811	-0.125158	0.036220	0.990754	3.690204	14.521326	176.099152	-0.965812	0.065857	-0.250740	-0.083990	-0.994517	0.062306	-0.245262	0.081235	0.966047
59113	30429474	-2.503937	0.612294	9.537315	0.027156	-0.000452	0.078217	0.005372	0.074872	-0.024635	-0.161630	-0.501428	-0.415211	-0.006258	0.001531	0.023844	1.000000	0.000007	0.000094	-0.000031	0.037844	-0.125246	0.036225	0.990742	3.690074	14.531632	176.095687	-0.965763	0.065912	-0.250914	-0.084060	-0.994511	0.062301	-0.245431	0.081259	0.966002
59114	30429499	-2.538433	0.594304	9.553191	0.056434	0.016370	0.101100	0.001702	0.073977	-0.025666				-0.006344	0.001486	0.023884	1.000000	0.000002	0.000092	-0.000032	0.037876	-0.125333	0.036226	0.990729	3.689376	14.541820	176.092085	-0.965714	0.065970	-0.251087	-0.084131	-0.994506	0.062286	-0.245598	0.081275	0.965959
59115	30429524	-2.522005	0.610671	9.602471	0.025416	0.005352	0.145600	0.007303	0.071326	-0.028573				-0.006303	0.001527	0.024007	1.000000	0.000009	0.000089	-0.000036	0.037914	-0.125417	0.036233	0.990717	3.689367	14.551656	176.088029	-0.965666	0.066035	-0.251253	-0.084212	-0.994499	0.062283	-0.245758	0.081303	0.965916
59116	30429549	-2.491590	0.619098	9.559951	0.004029	-0.004291	0.097411	0.008555	0.073327	-0.026241				-0.006227	0.001548	0.023900	1.000000	0.000011	0.000092	-0.000033	0.037948	-0.125503	0.036242	0.990705	3.689627	14.561756	176.084336	-0.965618	0.066094	-0.251423	-0.084288	-0.994493	0.062284	-0.245922	0.081335	0.965871
59117	30429574	-2.436422	0.623196	9.549363	-0.048945	-0.005640	0.073552	0.002503	0.075123	-0.033566	-0.161693	-0.500955	-0.416690	-0.006089	0.001558	0.023874	1.000000	0.000003	0.000094	-0.000042	0.037991	-0.125592	0.036242	0.990692	3.688752	14.572180	176.079578	-0.965567	0.066172	-0.251599	-0.084378	-0.994486	0.062267	-0.246092	0.081352	0.965826
59118	30429599	-2.461091	0.611112	9.486783	-0.010510	-0.000360	0.018567	0.004624	0.078207	-0.038016				-0.006150	0.001528	0.023718	1.000000	0.000006	0.000098	-0.000048	0.038039	-0.125685	0.036245	0.990678	3.688022	14.583087	176.074191	-0.965513	0.066259	-0.251784	-0.084481	-0.994479	0.062251	-0.246269	0.081375	0.965779
59119	30429624	-2.346774	0.696060	9.573600	-0.151357	-0.069938	0.078878	0.011145	0.079027	-0.038394				-0.005864	0.001740	0.023935	1.000000	0.000014	0.000099	-0.000048	0.038089	-0.125778	0.036255	0.990664	3.688212	14.594114	176.068756	-0.965458	0.066347	-0.251970	-0.084588	-0.994470	0.062251	-0.246446	0.081415	0.965731
59120	30429649	-2.513442	0.608371	9.477445	0.038882	-0.001090	0.022580	0.021446	0.077522	-0.035934				-0.006281	0.001521	0.023694	1.000000	0.000027	0.000097	-0.000045	0.038138	-0.125869	0.036279	0.990649	3.689965	14.604903	176.063671	-0.965405	0.066430	-0.252152	-0.084695	-0.994459	0.062278	-0.246618	0.081480	0.965681
59121	30429674	-2.568810	0.739799	9.666728	0.032389	-0.120033	0.227522	0.009428	0.079250	-0.039738	-0.159778	-0.500022	-0.415222	-0.006420	0.001850	0.024167	1.000000	0.000012	0.000099	-0.000050	0.038189	-0.125963	0.036287	0.990635	3.689858	14.615974	176.058029	-0.965350	0.066521	-0.252339	-0.084805	-0.994450	0.062273	-0.246796	0.081515	0.965633
59122	30429699	-2.585264	0.658973	9.568012	0.077825	-0.048400	0.131338	0.020516	0.075719	-0.045799				-0.006461	0.001647	0.023921	1.000000	0.000026	0.000095	-0.000057	0.038250	-0.126053	0.036308	0.990621	3.691104	14.626597	176.051468	-0.965295	0.066629	-0.252519	-0.084935	-0.994437	0.062291	-0.246964	0.081577	0.965585
59123	30429724	-2.535763	0.709501	9.658660	0.001542	-0.087842	0.209509	0.013655	0.074564	-0.043526				-0.006337	0.001774	0.024147	1.000000	0.000017	0.000093	-0.000054	0.038307	-0.126141	0.036320	0.990607	3.691448	14.637033	176.045232	-0.965242	0.066731	-0.252695	-0.085056	-0.994427	0.062294	-0.247130	0.081622	0.965539
59124	30429749	-2.535692	0.592971	9.545214	0.037632	0.019010	0.092705	0.014722	0.075087	-0.042138				-0.006337	0.001482	0.023864	1.000000	0.000018	0.000094	-0.000053	0.038362	-0.126230	0.036334	0.990593	3.691996	14.647532	176.039206	-0.965189	0.066829	-0.252872	-0.085175	-0.994416	0.062300	-0.247297	0.081670	0.965492
59125	30429774	-2.582853	0.565008	9.667473	0.053418	0.054100	0.220934	0.020818	0.073254	-0.045419	-0.158373	-0.501012	-0.415743	-0.006455	0.001412	0.024169	1.000000	0.000026	0.000092	-0.000057	0.038422	-0.126316	0.036355	0.990579	3.693290	14.657799	176.032678	-0.965136	0.066936	-0.253045	-0.085305	-0.994404	0.062319	-0.247458	0.081732	0.965445
59126	30429799	-2.847579	0.541532	9.709799	0.298960	0.063492	0.327386	0.022502	0.067924	-0.044975				-0.007117	0.001354	0.024275	1.000000	0.000028	0.000085	-0.000056	0.038482	-0.126395	0.036378	0.990565	3.694828	14.667300	176.026164	-0.965087	0.067043	-0.253206	-0.085435	-0.994391	0.062342	-0.247606	0.081798	0.965402
59127	30429824	-2.613766	0.381445	9.811831	0.060657	0.247028	0.356683	0.017750	0.053899	-0.028607				-0.006533	0.000953	0.024530	1.000000	0.000022	0.000067	-0.000036	0.038522	-0.126457	0.036397	0.990555	3.696262	14.674645	176.021935	-0.965049	0.067112	-0.253330	-0.085522	-0.994383	0.062364	-0.247721	0.081850	0.965368
59128	30429849	-2.872728	0.521818	9.836092	0.291795	0.092996	0.454489	0.038821	0.040551	-0.037292				-0.007181	0.001304	0.024591	1.000000	0.000049	0.000051	-0.000047	0.038577	-0.126502	0.036440	0.990546	3.700357	14.680163	176.016296	-0.965018	0.067205	-0.253423	-0.085644	-0.994368	0.062432	-0.247800	0.081952	0.965339
59129	30429874	-2.866896	0.708978	9.807437	0.276221	-0.094270	0.437077	0.036395	0.039427	-0.028525	-0.159798	-0.500988	-0.416219	-0.007166	0.001772	0.024519	1.000000	0.000045	0.000049	-0.000036	0.038620	-0.126545	0.036482	0.990537	3.704430	14.685439	176.011924	-0.964990	0.067277	-0.253512	-0.085743	-0.994355	0.062499	-0.247876	0.082048	0.965311
59130	30429899	-2.415929	0.624286	9.621201	-0.106353	0.005175	0.137651	0.019662	0.040881	-0.023426				-0.006039	0.001560	0.024053	1.000000	0.000025	0.000051	-0.000029	0.038655	-0.126590	0.036503	0.990529	3.706300	14.690877	176.008337	-0.964962	0.067336	-0.253604	-0.085819	-0.994347	0.062529	-0.247960	0.082102	0.965285
59131	30429924	-2.361428	0.694186	9.350116	-0.098607	-0.082581	-0.133478	0.018634	0.040571	-0.023116				-0.005902	0.001735	0.023376	1.000000	0.000023	0.000051	-0.000029	0.038689	-0.126635	0.036524	0.990522	3.708033	14.696267	176.004793	-0.964934	0.067394	-0.253695	-0.085894	-0.994338	0.062556	-0.248043	0.082154	0.965259
59132	30429949	-2.448468	0.700632	9.452514	-0.041743	-0.085845	-0.012150	0.025718	0.047918	-0.026147				-0.006120	0.001751	0.023632	1.000000	0.000032	0.000060	-0.000033	0.038727	-0.126688	0.036553	0.990512	3.710685	14.702736	176.000871	-0.964900	0.067458	-0.253804	-0.085981	-0.994328	0.062599	-0.248142	0.082224	0.965228
59133	30429974	-2.672177	0.671114	9.633184	0.130561	-0.056343	0.217191	0.020045	0.048332	-0.023693	-0.159266	-0.501470	-0.414746	-0.006679	0.001677	0.024083	1.000000	0.000025	0.000060	-0.000030	0.038762	-0.126743	0.036575	0.990503	3.712617	14.709241	175.997316	-0.964868	0.067516	-0.253914	-0.086058	-0.994320	0.062630	-0.248243	0.082281	0.965197
59134	30429999	-2.762238	0.564652	9.767125	0.192764	0.054610	0.362683	0.013207	0.037509	-0.015709				-0.006904	0.001411	0.024418	1.000000	0.000017	0.000047	-0.000020	0.038785	-0.126784	0.036590	0.990496	3.713842	14.714125	175.994838	-0.964843	0.067556	-0.253996	-0.086112	-0.994314	0.062649	-0.248320	0.082319	0.965174
59135	30430024	-2.672644	0.597663	9.773940	0.101268	0.028457	0.348574	0.006258	0.028907	-0.008345				-0.006681	0.001494	0.024435	1.000000	0.000008	0.000036	-0.000010	0.038800	-0.126814	0.036596	0.990491	3.714327	14.717712	175.993365	-0.964825	0.067579	-0.254057	-0.086143	-0.994311	0.062656	-0.248377	0.082338	0.965158
59136	30430049	-2.614885	0.438193	9.708248	0.075043	0.185551	0.260507	-0.000869	0.027934	0.009811				-0.006536	0.001095	0.024271	1.000000	-0.000001	0.000035	0.000012	0.038790	-0.126843	0.036597	0.990488	3.714471	14.720990	175.994566	-0.964812	0.067558	-0.254112	-0.086127	-0.994312	0.062658	-0.248434	0.082339	0.965143
59137	30430074	-2.518118	0.544382	9.664771	-0.017353	0.082763	0.200611	-0.009073	0.027364	0.012445	-0.157867	-0.501016	-0.414760	-0.006294	0.001361	0.024162	1.000000	-0.000011	0.000034	0.000016	0.038776	-0.126871	0.036588	0.990485	3.713538	14.724163	175.996137	-0.964800	0.067531	-0.254166	-0.086099	-0.994315	0.062641	-0.248491	0.082320	0.965130
59138	30430099	-2.435015	0.549135	9.503899	-0.058316	0.070664	0.024518	0.003834	0.025378	0.007717				-0.006087	0.001373	0.023760	1.000000	0.000005	0.000032	0.000010	0.038770	-0.126897	0.036594	0.990482	3.714270	14.727096	175.997004	-0.964788	0.067515	-0.254215	-0.086090	-0.994315	0.062653	-0.248540	0.082332	0.965116
59139	30430124	-2.373655	0.763082	9.321078	-0.091034	-0.152360	-0.154113	0.019182	0.027113	-0.001258				-0.005933	0.001907	0.023303	1.000000	0.000024	0.000034	-0.000002	0.038778	-0.126924	0.036618	0.990478	3.716869	14.730360	175.996562	-0.964773	0.067522	-0.254270	-0.086113	-0.994311	0.062695	-0.248591	0.082383	0.965099
59140	30430149	-2.266330	0.691308	9.362136	-0.199140	-0.070236	-0.146292	0.010841	0.026545	-0.006469				-0.005665	0.001728	0.023406	1.000000	0.000014	0.000033	-0.000008	0.038790	-0.126951	0.036631	0.990473	3.718075	14.733592	175.995344	-0.964757	0.067541	-0.254325	-0.086143	-0.994307	0.062715	-0.248641	0.082413	0.965083
59141	30430174	-2.297944	0.714856	9.327607	-0.163055	-0.098412	-0.170115	0.010312	0.034636	-0.015014	-0.157840	-0.501494	-0.414269	-0.005744	0.001787	0.023319	1.000000	0.000013	0.000043	-0.000019	0.038813	-0.126989	0.036642	0.990467	3.718904	14.738059	175.992940	-0.964735	0.067580	-0.254400	-0.086193	-0.994302	0.062728	-0.248712	0.082443	0.965063
59142	30430199	-2.214220	0.634673	9.423166	-0.261623	-0.005008	-0.104253	0.009216	0.042658	-0.016722				-0.005534	0.001587	0.023558	1.000000	0.000012	0.000053	-0.000021	0.038838	-0.127036	0.036652	0.990460	3.719531	14.743689	175.990362	-0.964707	0.067622	-0.254495	-0.086246	-0.994297	0.062736	-0.248802	0.082472	0.965037
59143	30430224	-2.423763	0.659303	9.461701	-0.072493	-0.040236	-0.012193	0.010400	0.052351	-0.015475				-0.006058	0.001648	0.023655	1.000000	0.000013	0.000065	-0.000019	0.038860	-0.127096	0.036664	0.990451	3.720398	14.750693	175.988061	-0.964673	0.067659	-0.254614	-0.086298	-0.994291	0.062749	-0.248915	0.082505	0.965005
59144	30430249	-2.486018	0.630065	9.562669	-0.036492	-0.006964	0.099255	0.002539	0.059389	-0.003305				-0.006213	0.001575	0.023907	1.000000	0.000003	0.000074	-0.000004	0.038866	-0.127164	0.036668	0.990441	3.720614	14.758589	175.987626	-0.964638	0.067663	-0.254747	-0.086315	-0.994290	0.062750	-0.249046	0.082520	0.964970
59145	30430274	-2.341386	0.487199	9.479795	-0.144665	0.137886	-0.026552	-0.009322	0.063860	0.005957	-0.157406	-0.500544	-0.414761	-0.005852	0.001218	0.023700	1.000000	-0.000012	0.000080	0.000007	0.038859	-0.127238	0.036660	0.990433	3.719491	14.767039	175.988589	-0.964601	0.067645	-0.254890	-0.086302	-0.994292	0.062729	-0.249191	0.082506	0.964933
59146	30430299	-2.342244	0.641793	9.372569	-0.131789	-0.024501	-0.120118	0.001834	0.064339	0.000705				-0.005854	0.001604	0.023432	1.000000	0.000002	0.000080	0.000001	0.038859	-0.127312	0.036664	0.990423	3.719769	14.775606	175.988795	-0.964563	0.067638	-0.255034	-0.086309	-0.994291	0.062731	-0.249335	0.082520	0.964895
59147	30430324	-2.354534	0.710557	9.375459	-0.128354	-0.093188	-0.109901	0.007251	0.072652	-0.009236				-0.005884	0.001776	0.023439	1.000000	0.000009	0.000091	-0.000012	0.038873	-0.127396	0.036674	0.990411	3.720469	14.785454	175.987611	-0.964518	0.067655	-0.255200	-0.086344	-0.994288	0.062740	-0.249498	0.082549	0.964850
59148	30430349	-2.269068	0.703755	9.347543	-0.205228	-0.082814	-0.159121	0.004523	0.081839	-0.013340				-0.005670	0.001759	0.023369	1.000000	0.000006	0.000102	-0.000017	0.038890	-0.127492	0.036680	0.990398	3.720645	14.796653	175.985908	-0.964467	0.067680	-0.255389	-0.086386	-0.994284	0.062740	-0.249683	0.082573	0.964801
59149	30430374	-2.209968	0.551096	9.323129	-0.245275	0.071326	-0.207416	0.008821	0.091660	-0.016512	-0.157867	-0.501016	-0.414760	-0.005522	0.001378	0.023308	1.000000	0.000011	0.000115	-0.000021	0.038912	-0.127601	0.036692	0.990383	3.721341	14.809285	175.983831	-0.964408	0.067711	-0.255602	-0.086439	-0.994279	0.062748	-0.249891	0.082609	0.964744
59150	30430399	-2.319213	0.409108	9.390439	-0.146820	0.210902	-0.123496	0.008892	0.100842	-0.019854				-0.005795	0.001023	0.023477	1.000000	0.000011	0.000126	-0.000025	0.038937	-0.127720	0.036704	0.990366	3.721943	14.823261	175.981349	-0.964343	0.067749	-0.255838	-0.086500	-0.994273	0.062754	-0.250122	0.082647	0.964681
59151	30430424	-2.201063	0.353652	9.499388	-0.285843	0.283525	-0.052209	0.014442	0.108576	-0.023326				-0.005499	0.000884	0.023749	1.000000	0.000018	0.000136	-0.000029	0.038968	-0.127850	0.036722	0.990347	3.723227	14.838374	175.978427	-0.964272	0.067793	-0.256093	-0.086573	-0.994266	0.062771	-0.250369	0.082699	0.964612
59152	30430449	-1.700792	0.591863	9.061515	-0.682105	0.044640	-0.588013	0.007245	0.123924	-0.015835				-0.004248	0.001480	0.022654	1.000000	0.000009	0.000155	-0.000020	0.038987	-0.127998	0.036734	0.990327	3.723801	14.855612	175.976761	-0.964193	0.067816	-0.256384	-0.086623	-0.994261	0.062776	-0.250656	0.082737	0.964534
59153	30430474	-1.704912	0.591930	9.060186	-0.681604	0.044666	-0.588516	0.010772	0.150296	-0.025250	-0.157867	-0.501016	-0.414760	-0.004258	0.001480	0.022651	1.000000	0.000013	0.000188	-0.000032	0.039017	-0.128179	0.036749	0.990302	3.724587	14.876707	175.973952	-0.964095	0.067857	-0.256740	-0.086698	-0.994254	0.062783	-0.251005	0.082788	0.964439
59154	30430499	-1.820742	0.652246	9.122840	-0.595431	-0.017244	-0.494833	0.020672	0.184980	-0.036184				-0.004547	0.001630	0.022808	1.000000	0.000026	0.000231	-0.000045	0.039061	-0.128403	0.036777	0.990270	3.726461	14.902861	175.969865	-0.963974	0.067917	-0.257181	-0.086806	-0.994243	0.062807	-0.251435	0.082869	0.964320
59155	30430524	-1.965831	0.529388	9.226115	-0.475934	0.104141	-0.365880	0.016974	0.206220	-0.041953				-0.004909	0.001323	0.023067	1.000000	0.000021	0.000258	-0.000052	0.039110	-0.128654	0.036800	0.990234	3.727636	14.932105	175.965129	-0.963837	0.067988	-0.257674	-0.086926	-0.994232	0.062818	-0.251917	0.082945	0.964188
59156	30430549	-2.072114	0.468770	9.252437	-0.380096	0.160282	-0.317122	0.025466	0.219169	-0.038764				-0.005174	0.001171	0.023133	1.000000	0.000032	0.000274	-0.000048	0.039156	-0.128921	0.036835	0.990197	3.730179	14.963171	175.960990	-0.963693	0.068047	-0.258198	-0.087043	-0.994220	0.062852	-0.252429	0.083044	0.964045
59157	30430574	-2.193267	0.533528	9.237947	-0.270891	0.087271	-0.295874	0.025459	0.228262	-0.043863	-0.157406	-0.500544	-0.414761	-0.005477	0.001333	0.023096	1.000000	0.000032	0.000285	-0.000055	0.039208	-0.129198	0.036870	0.990157	3.732547	14.995584	175.956185	-0.963541	0.068118	-0.258745	-0.087172	-0.994207	0.062882	-0.252962	0.083145	0.963897
59158	30430599	-2.043117	0.523759	9.263264	-0.426758	0.110240	-0.311241	0.027759	0.240815	-0.039200				-0.005101	0.001309	0.023160	1.000000	0.000035	0.000301	-0.000049	0.039254	-0.129491	0.036908	0.990116	3.735452	15.029748	175.952191	-0.963382	0.068174	-0.259321	-0.087291	-0.994194	0.062921	-0.253525	0.083253	0.963739
59159	30430624	-2.029143	0.537801	9.187507	-0.428378	0.091706	-0.387275	0.023165	0.257602	-0.038938				-0.005065	0.001344	0.022970	1.000000	0.000029	0.000322	-0.000049	0.039299	-0.129805	0.036942	0.990071	3.737749	15.066309	175.948400	-0.963212	0.068226	-0.259937	-0.087407	-0.994182	0.062949	-0.254130	0.083354	0.963572
59160	30430649	-1.967154	0.477369	9.156762	-0.481712	0.154410	-0.437195	0.025047	0.281096	-0.038625				-0.004910	0.001193	0.022894	1.000000	0.000031	0.000351	-0.000048	0.039342	-0.130148	0.036980	0.990023	3.740385	15.106225	175.944884	-0.963027	0.068272	-0.260609	-0.087524	-0.994169	0.062981	-0.254790	0.083462	0.963388
59161	30430674	-2.022187	0.573604	9.183643	-0.451200	0.058336	-0.391227	0.029601	0.297122	-0.045322	-0.156015	-0.499610	-0.414770	-0.005047	0.001433	0.022961	1.000000	0.000037	0.000371	-0.000057	0.039393	-0.130511	0.037023	0.989972	3.743452	15.148495	175.940527	-0.962830	0.068332	-0.261322	-0.087660	-0.994155	0.063020	-0.255488	0.083585	0.963192
59162	30430699	-2.133823	0.594246	9.194297	-0.355558	0.032171	-0.350725	0.033130	0.310503	-0.051337				-0.005326	0.001485	0.022988	1.000000	0.000041	0.000388	-0.000064	0.039452	-0.130891	0.037070	0.989918	3.746823	15.192734	175.935416	-0.962622	0.068404	-0.262067	-0.087812	-0.994139	0.063064	-0.256217	0.083719	0.962987
59163	30430724	-2.207045	0.565112	9.258007	-0.306765	0.062810	-0.272262	0.040092	0.327639	-0.055881				-0.005508	0.001412	0.023147	1.000000	0.000050	0.000410	-0.000070	0.039516	-0.131291	0.037125	0.989860	3.751055	15.239465	175.929800	-0.962402	0.068483	-0.262854	-0.087980	-0.994120	0.063121	-0.256986	0.083874	0.962769
59164	30430749	-2.267724	0.610329	9.309985	-0.274052	0.019265	-0.203631	0.036241	0.343184	-0.053856				-0.005659	0.001525	0.023277	1.000000	0.000045	0.000429	-0.000067	0.039577	-0.131711	0.037177	0.989800	3.754850	15.288399	175.924638	-0.962172	0.068553	-0.263678	-0.088140	-0.994103	0.063170	-0.257792	0.084021	0.962540
59165	30430774	-2.215576	0.531746	9.344341	-0.334651	0.105007	-0.189613	0.030856	0.349869	-0.048065	-0.154546	-0.501073	-0.413812	-0.005529	0.001329	0.023363	1.000000	0.000039	0.000437	-0.000060	0.039629	-0.132139	0.037223	0.989739	3.758114	15.338235	175.920400	-0.961938	0.068608	-0.264517	-0.088283	-0.994088	0.063210	-0.258616	0.084156	0.962307
59166	30430799	-2.208487	0.504571	9.247139	-0.322563	0.125464	-0.287039	0.029716	0.366004	-0.044696				-0.005511	0.001261	0.023120	1.000000	0.000037	0.000458	-0.000056	0.039677	-0.132587	0.037270	0.989675	3.761385	15.390346	175.916821	-0.961693	0.068651	-0.265394	-0.088417	-0.994073	0.063249	-0.259479	0.084291	0.962063
59167	30430824	-2.231680	0.617533	9.220907	-0.312544	0.010740	-0.299257	0.035270	0.380892	-0.047681				-0.005568	0.001543	0.023055	1.000000	0.000044	0.000476	-0.000060	0.039728	-0.133053	0.037323	0.989609	3.765370	15.444612	175.912948	-0.961437	0.068698	-0.266307	-0.088562	-0.994057	0.063299	-0.260376	0.084443	0.961808
59168	30430849	-2.200000	0.665569	9.251689	-0.364429	-0.031237	-0.275406	0.026731	0.385201	-0.052017				-0.005489	0.001664	0.023132	1.000000	0.000033	0.000482	-0.000065	0.039783	-0.133525	0.037366	0.989541	3.767969	15.499536	175.908475	-0.961177	0.068755	-0.267231	-0.088712	-0.994042	0.063326	-0.261284	0.084574	0.961550
59169	30430874	-2.243953	0.730371	9.233249	-0.332935	-0.098941	-0.277597	0.030099	0.402573	-0.054140	-0.152616	-0.502064	-0.412856	-0.005598	0.001825	0.023086	1.000000	0.000038	0.000503	-0.000068	0.039840	-0.134019	0.037413	0.989471	3.771008	15.556963	175.903866	-0.960903	0.068813	-0.268196	-0.088869	-0.994026	0.063360	-0.262234	0.084717	0.961278
59170	30430899	-2.394144	0.837457	9.296046	-0.224673	-0.209164	-0.170299	0.032672	0.415935	-0.061168				-0.005973	0.002093	0.023243	1.000000	0.000041	0.000520	-0.000076	0.039906	-0.134529	0.037463	0.989397	3.774166	15.616366	175.898339	-0.960619	0.068886	-0.269195	-0.089045	-0.994008	0.063394	-0.263215	0.084868	0.960997
59171	30430924	-2.365729	0.706205	9.421970	-0.283959	-0.065002	-0.065583	0.021498	0.428915	-0.046261				-0.005902	0.001765	0.023558	1.000000	0.000027	0.000536	-0.000058	0.039951	-0.135055	0.037502	0.989322	3.776349	15.677484	175.895154	-0.960328	0.068919	-0.270222	-0.089178	-0.993995	0.063412	-0.264229	0.084994	0.960708
59172	30430949	-2.288255	0.796012	9.342531	-0.355984	-0.155281	-0.157549	0.001030	0.438592	-0.048876				-0.005708	0.001990	0.023359	1.000000	0.000001	0.000548	-0.000061	0.039995	-0.135594	0.037516	0.989246	3.775518	15.740010	175.891675	-0.960029	0.068956	-0.271273	-0.089304	-0.993986	0.063378	-0.265271	0.085071	0.960414
59173	30430974	-2.232944	0.749572	9.241291	-0.389196	-0.113089	-0.273187	0.004597	0.457460	-0.052440	-0.151146	-0.502563	-0.411394	-0.005569	0.001874	0.023106	1.000000	0.000006	0.000572	-0.000066	0.040043	-0.136156	0.037534	0.989166	3.775100	15.805266	175.887850	-0.959716	0.068998	-0.272369	-0.089440	-0.993975	0.063351	-0.266357	0.085160	0.960105
59174	30430999	-2.234243	0.709812	9.202595	-0.385400	-0.076283	-0.312944	0.004157	0.474995	-0.060619				-0.005572	0.001775	0.023010	1.000000	0.000005	0.000594	-0.000076	0.040101	-0.136741	0.037552	0.989082	3.774329	15.873106	175.882980	-0.959388	0.069056	-0.273508	-0.089596	-0.993964	0.063317	-0.267484	0.085251	0.959784
59175	30430654																																			
59176	30430654																																			
59177	30431024	-2.330861	0.698651	9.247715	-0.315651	-0.067423	-0.244251	0.000341	0.489369	-0.064617				-0.005813	0.001747	0.023123	1.000000	0.000000	0.000612	-0.000081	0.040162	-0.137343	0.037565	0.988996	3.772881	15.943038	175.877653	-0.959048	0.069121	-0.274682	-0.089758	-0.993952	0.063271	-0.268647	0.085334	0.959451
59178	30431049	-2.386091	0.665546	9.271516	-0.278383	-0.035739	-0.208656	-0.002277	0.504586	-0.067103				-0.005950	0.001664	0.023183	1.000000	-0.000003	0.000631	-0.000084	0.040225	-0.137965	0.037575	0.988906	3.770990	16.015168	175.872102	-0.958695	0.069189	-0.275892	-0.089925	-0.993940	0.063216	-0.269846	0.085415	0.959108
59179	30431074	-2.421872	0.665589	9.252904	-0.251315	-0.041684	-0.216843	-0.004299	0.518501	-0.067884	-0.147925	-0.502153	-0.412915	-0.006040	0.001665	0.023136	1.000000	-0.000005	0.000648	-0.000085	0.039718	-0.138619	0.037473	0.988839	3.765311	16.088475	175.932093	-0.958414	0.068160	-0.277121	-0.088938	-0.994037	0.063098	-0.271168	0.085121	0.958761
59180	30431099	-2.463310	0.717647	9.327502	-0.249527	-0.089411	-0.130862	-0.008930	0.535679	-0.058712				-0.006143	0.001795	0.023323	1.000000	-0.000011	0.000670	-0.000073	0.039768	-0.139279	0.037477	0.988744	3.762881	16.164969	175.928080	-0.958040	0.068201	-0.278404	-0.089080	-0.994028	0.063033	-0.272442	0.085188	0.958394
59181	30431124	-2.369633	0.754656	9.360949	-0.365056	-0.116574	-0.123111	-0.015813	0.547989	-0.053941				-0.005908	0.001888	0.023406	1.000000	-0.000020	0.000685	-0.000067	0.039810	-0.139954	0.037474	0.988647	3.759689	16.243178	175.924892	-0.957656	0.068227	-0.279715	-0.089206	-0.994022	0.062954	-0.273747	0.085241	0.958017
59182	30431149	-2.313143	0.694217	9.326192	-0.417805	-0.055213	-0.176621	-0.017628	0.560243	-0.056094				-0.005766	0.001736	0.023319	1.000000	-0.000022	0.000700	-0.000070	0.039854	-0.140645	0.037469	0.988548	3.756175	16.323158	175.921498	-0.957261	0.068256	-0.281055	-0.089336	-0.994015	0.062870	-0.275081	0.085291	0.957630
59183	30431174	-2.205552	0.672406	9.268969	-0.517124	-0.030398	-0.263846	-0.009635	0.577140	-0.072235	-0.147001	-0.500247	-0.412415	-0.005497	0.001682	0.023176	1.000000	-0.000012	0.000721	-0.000090	0.039919	-0.141356	0.037472	0.988444	3.753169	16.405705	175.915858	-0.956850	0.068322	-0.282437	-0.089510	-0.994005	0.062793	-0.276453	0.085364	0.957228
59184	30431199	-2.158742	0.680550	9.291667	-0.583537	-0.032672	-0.255742	-0.006253	0.603919	-0.076245				-0.005379	0.001702	0.023233	1.000000	-0.000008	0.000755	-0.000095	0.039988	-0.142101	0.037480	0.988334	3.750542	16.492116	175.909876	-0.956417	0.068391	-0.283883	-0.089695	-0.993992	0.062721	-0.277888	0.085451	0.956805
59185	30431224	-2.142377	0.456566	9.203140	-0.569600	0.184224	-0.360043	-0.008096	0.631715	-0.071949				-0.005338	0.001142	0.023012	1.000000	-0.000010	0.000790	-0.000090	0.040050	-0.142879	0.037488	0.988219	3.747901	16.582461	175.904798	-0.955963	0.068444	-0.285395	-0.089869	-0.993981	0.062648	-0.279389	0.085537	0.956360
59186	30431249	-2.240206	0.419411	9.212303	-0.491079	0.215889	-0.326433	-0.008884	0.654663	-0.081714				-0.005582	0.001049	0.023035	1.000000	-0.000011	0.000818	-0.000102	0.040123	-0.143687	0.037494	0.988098	3.744783	16.676176	175.898482	-0.955489	0.068516	-0.286962	-0.090065	-0.993969	0.062565	-0.280945	0.085626	0.955897
59187	30431274	-2.343459	0.353663	9.136176	-0.380998	0.268637	-0.374244	-0.000700	0.666869	-0.085182	-0.146071	-0.499784	-0.412422	-0.005840	0.000885	0.022845	1.000000	-0.000001	0.000834	-0.000106	0.040201	-0.144509	0.037510	0.987975	3.742711	16.771668	175.891746	-0.955002	0.068594	-0.288558	-0.090276	-0.993954	0.062499	-0.282527	0.085737	0.955420
59188	30431299	-2.420679	0.326185	9.136062	-0.320775	0.291895	-0.354291	0.013644	0.679505	-0.093494				-0.006032	0.000816	0.022845	1.000000	0.000017	0.000849	-0.000117	0.040291	-0.145346	0.037543	0.987847	3.742358	16.869044	175.883900	-0.954502	0.068689	-0.290185	-0.090516	-0.993934	0.062462	-0.284135	0.085886	0.954930
59189	30431324	-2.341198	0.363854	9.346355	-0.476834	0.279490	-0.175168	0.022212	0.696461	-0.097886				-0.005833	0.000910	0.023371	1.000000	0.000028	0.000871	-0.000122	0.040387	-0.146204	0.037587	0.987715	3.743076	16.968884	175.875560	-0.953986	0.068792	-0.291852	-0.090773	-0.993912	0.062440	-0.285780	0.086060	0.954423
59190	30431349	-2.382611	0.366609	9.350322	-0.456002	0.275538	-0.159929	0.017534	0.712013	-0.095555				-0.005936	0.000917	0.023381	1.000000	0.000022	0.000890	-0.000119	0.040479	-0.147081	0.037626	0.987579	3.743254	17.070926	175.867716	-0.953457	0.068885	-0.293555	-0.091021	-0.993891	0.062409	-0.287463	0.086224	0.953903
59191	30431374	-2.370338	0.303285	9.366132	-0.484527	0.342560	-0.153378	0.030641	0.735642	-0.101751	-0.143213	-0.501276	-0.411977	-0.005904	0.000758	0.023421	1.000000	0.000038	0.000920	-0.000127	0.040580	-0.147987	0.037681	0.987438	3.745091	17.176403	175.859175	-0.952906	0.068988	-0.295315	-0.091293	-0.993867	0.062404	-0.289198	0.086426	0.953360
59192	30431399	-2.573037	0.230279	9.385718	-0.309009	0.404803	-0.079878	0.041665	0.761239	-0.110732				-0.006410	0.000575	0.023470	1.000000	0.000052	0.000952	-0.000138	0.040693	-0.148924	0.037749	0.987290	3.748168	17.285623	175.849540	-0.952331	0.069107	-0.297135	-0.091594	-0.993838	0.062419	-0.290991	0.086659	0.952793
59193	30431424	-2.862392	0.585920	9.606240	-0.150226	0.052416	0.238326	0.042613	0.778265	-0.118221				-0.007132	0.001465	0.024023	1.000000	0.000053	0.000973	-0.000148	0.040814	-0.149883	0.037818	0.987137	3.751079	17.397347	175.838951	-0.951739	0.069241	-0.298997	-0.091914	-0.993808	0.062429	-0.292823	0.086898	0.952210
59194	30431449	-2.925001	0.904840	10.042152	-0.268288	-0.230213	0.691485	0.001998	0.773096	-0.096749				-0.007288	0.002263	0.025112	1.000000	0.000002	0.000966	-0.000121	0.040901	-0.150836	0.037841	0.986987	3.749101	17.508132	175.831523	-0.951151	0.069322	-0.300841	-0.092153	-0.993790	0.062358	-0.294650	0.087036	0.951633
59195	30431474	-2.939656	0.999300	9.828302	-0.220292	-0.343917	0.497925	-0.042671	0.782730	-0.075270	-0.139864	-0.500847	-0.410036	-0.007325	0.002500	0.024578	1.000000	-0.000053	0.000978	-0.000094	0.040953	-0.151802	0.037813	0.986838	3.741706	17.620092	175.827380	-0.950558	0.069348	-0.302704	-0.092308	-0.993786	0.062197	-0.296510	0.087064	0.951053
59196	30431499	-2.888773	1.197667	9.427261	-0.187812	-0.572535	0.113142	-0.050437	0.803438	-0.079557				-0.007198	0.002996	0.023575	0.999999	-0.000063	0.001004	-0.000099	0.041008	-0.152793	0.037776	0.986684	3.733052	17.735051	175.822793	-0.949945	0.069380	-0.304616	-0.092467	-0.993783	0.062014	-0.298419	0.087077	0.950454
59197	30431524	-2.714658	1.262739	9.299894	-0.341429	-0.636485	-0.057762	-0.060628	0.823499	-0.081523				-0.006762	0.003159	0.023256	0.999999	-0.000076	0.001029	-0.000102	0.041062	-0.153810	0.037726	0.986526	3.722892	17.852895	175.818085	-0.949313	0.069412	-0.306574	-0.092623	-0.993781	0.061804	-0.300378	0.087067	0.949838
59198	30431549	-2.700513	1.256494	9.142942	-0.326904	-0.643641	-0.212232	-0.073968	0.825319	-0.087409				-0.006727	0.003144	0.022864	0.999999	-0.000092	0.001032	-0.000109	0.041121	-0.154831	0.037659	0.986366	3.710537	17.971054	175.812483	-0.948673	0.069458	-0.308536	-0.092782	-0.993782	0.061558	-0.302342	0.087025	0.949219
59199	30431574	-2.738584	1.249019	8.935413	-0.247180	-0.657524	-0.398392	-0.075732	0.834640	-0.102121	-0.137011	-0.499932	-0.408579	-0.006823	0.003126	0.022345	0.999999	-0.000095	0.001043	-0.000128	0.041197	-0.155863	0.037588	0.986203	3.697251	18.090679	175.804728	-0.948019	0.069540	-0.310522	-0.092974	-0.993780	0.061297	-0.304328	0.086981	0.948588
59200	30431599	-2.690493	1.325538	9.067329	-0.360616	-0.719773	-0.284428	-0.084901	0.847861	-0.112113				-0.006702	0.003317	0.022675	0.999999	-0.000106	0.001060	-0.000140	0.041283	-0.156912	0.037504	0.986036	3.682198	18.212285	175.795562	-0.947349	0.069643	-0.312539	-0.093182	-0.993778	0.061005	-0.306346	0.086916	0.947944
59201	30431624	-2.849528	1.298747	9.254790	-0.286124	-0.689504	-0.059256	-0.101593	0.849696	-0.120981				-0.007099	0.003251	0.023144	0.999999	-0.000127	0.001062	-0.000151	0.041376	-0.157965	0.037398	0.985868	3.664308	18.334231	175.785036	-0.946670	0.069768	-0.314560	-0.093398	-0.993779	0.060666	-0.308370	0.086810	0.947297
59202	30431649	-2.822824	0.929388	9.387893	-0.339803	-0.311307	0.035217	-0.130428	0.865989	-0.118148				-0.007031	0.002328	0.023477	0.999999	-0.000163	0.001082	-0.000148	0.041460	-0.159039	0.037257	0.985698	3.642434	18.458478	175.775041	-0.945976	0.069882	-0.316617	-0.093584	-0.993786	0.060261	-0.310439	0.086636	0.946637
59203	30431674	-2.938784	0.861897	9.419467	-0.256096	-0.251748	0.097261	-0.140539	0.883271	-0.110528	-0.134257	-0.498549	-0.409591	-0.007321	0.002160	0.023556	0.999999	-0.000176	0.001104	-0.000138	0.041531	-0.160134	0.037107	0.985523	3.619490	18.585122	175.766298	-0.945265	0.069975	-0.318713	-0.093743	-0.993797	0.059838	-0.312549	0.086440	0.945961
59204	30431699	-2.969271	0.709213	9.419000	-0.235520	-0.104386	0.096930	-0.140552	0.901552	-0.119276				-0.007396	0.001778	0.023556	0.999999	-0.000176	0.001127	-0.000149	0.041612	-0.161252	0.036955	0.985343	3.596140	18.714455	175.756352	-0.944533	0.070086	-0.320852	-0.093922	-0.993806	0.059407	-0.314701	0.086247	0.945264
59205	30431724	-2.829039	0.494472	9.398364	-0.363895	0.115331	0.018784	-0.128290	0.909896	-0.127460				-0.007046	0.001241	0.023504	0.999999	-0.000160	0.001137	-0.000159	0.041705	-0.162379	0.036818	0.985159	3.574133	18.845051	175.745188	-0.943787	0.070215	-0.323010	-0.094129	-0.993810	0.058998	-0.316868	0.086086	0.944555
59206	30431749	-2.771816	0.675496	9.199455	-0.394712	-0.079777	-0.177862	-0.138152	0.933430	-0.129434				-0.006902	0.001694	0.023006	0.999999	-0.000173	0.001167	-0.000162	0.041797	-0.163536	0.036669	0.984969	3.550643	18.979024	175.733883	-0.943018	0.070345	-0.325222	-0.094332	-0.993817	0.058564	-0.319091	0.085906	0.943823
59207	30431774	-2.621941	0.483986	9.264149	-0.562163	0.124046	-0.178228	-0.156592	0.951317	-0.137253	-0.131830	-0.499064	-0.407646	-0.006527	0.001216	0.023168	0.999999	-0.000196	0.001189	-0.000172	0.041895	-0.164717	0.036496	0.984775	3.524132	19.115619	175.721492	-0.942227	0.070491	-0.327475	-0.094537	-0.993826	0.058080	-0.321359	0.085683	0.943073
59208	30431799	-2.768000	0.464923	9.214787	-0.430547	0.126599	-0.178868	-0.132069	0.967640	-0.163440				-0.006892	0.001168	0.023045	0.999999	-0.000165	0.001210	-0.000204	0.042029	-0.165917	0.036349	0.984573	3.499828	19.254772	175.705213	-0.941411	0.070699	-0.329769	-0.094823	-0.993825	0.057631	-0.323658	0.085524	0.942301
59209	30431824	-2.918055	0.539235	9.226932	-0.324911	0.041223	-0.114293	-0.123192	0.989031	-0.186621				-0.007266	0.001353	0.023076	0.999999	-0.000154	0.001236	-0.000233	0.042192	-0.167143	0.036210	0.984364	3.475636	19.397179	175.685544	-0.940566	0.070960	-0.332115	-0.095169	-0.993817	0.057183	-0.326004	0.085391	0.941504
59210	30431849	-3.159448	0.473066	9.257171	-0.126618	0.090301	-0.009424	-0.120203	1.002150	-0.204630				-0.007869	0.001188	0.023153	0.999999	-0.000150	0.001253	-0.000256	0.042377	-0.168386	0.036071	0.984149	3.450927	19.541610	175.663182	-0.939700	0.071264	-0.334491	-0.095559	-0.993806	0.056726	-0.328377	0.085269	0.940690
59211	30431874	-3.184584	0.590540	9.487640	-0.216461	-0.010712	0.221819	-0.122638	1.018304	-0.208303	-0.127100	-0.498184	-0.406214	-0.007931	0.001482	0.023729	0.999999	-0.000153	0.001273	-0.000260	0.042566	-0.169649	0.035929	0.983929	3.425650	19.688373	175.640311	-0.938815	0.071573	-0.336904	-0.095955	-0.993795	0.056260	-0.330787	0.085145	0.939857
59212	30431899	-3.254923	0.807348	9.639943	-0.248755	-0.222071	0.400130	-0.171530	1.031100	-0.196266				-0.008106	0.002026	0.024110	0.999999	-0.000214	0.001289	-0.000245	0.042729	-0.170930	0.035730	0.983708	3.393938	19.836852	175.619298	-0.937915	0.071851	-0.339343	-0.096280	-0.993795	0.055688	-0.333236	0.084902	0.939013
59213	30431924	-3.362705	1.331226	10.156374	-0.400173	-0.711877	0.949185	-0.214760	1.048220	-0.214394				-0.008373	0.003337	0.025401	0.999999	-0.000268	0.001310	-0.000268	0.042904	-0.172234	0.035475	0.983482	3.355056	19.987920	175.595564	-0.936989	0.072170	-0.341822	-0.096610	-0.993802	0.054998	-0.335734	0.084556	0.938154
59214	30431949	-3.772285	2.246911	10.732485	-0.330320	-1.609561	1.678188	-0.251903	1.042649	-0.229055				-0.009394	0.005628	0.026842	0.999999	-0.000315	0.001303	-0.000286	0.043089	-0.173534	0.035170	0.983256	3.309964	20.138297	175.569409	-0.936059	0.072529	-0.344287	-0.096941	-0.993813	0.054208	-0.338226	0.084117	0.937298
59215	30431974	-3.596603	2.633870	10.623375	-0.526248	-2.000950	1.532839	-0.374529	1.053797	-0.199886	-0.124292	-0.496793	-0.405742	-0.008955	0.006599	0.026567	0.999999	-0.000468	0.001317	-0.000250	0.043211	-0.174852	0.034722	0.983033	3.248751	20.290005	175.547623	-0.935119	0.072813	-0.346772	-0.097098	-0.993854	0.053155	-0.340771	0.083377	0.936442
59216	30431999	-3.364636	2.874368	9.997882	-0.582709	-2.287394	0.875043	-0.483148	1.089293	-0.190291				-0.008376	0.007203	0.025002	0.999999	-0.000604	0.001362	-0.000238	0.043296	-0.176220	0.034144	0.982805	3.172465	20.446689	175.527387	-0.934144	0.073069	-0.349336	-0.097137	-0.993919	0.051855	-0.343422	0.082373	0.935562
59217	30432024	-3.388307	2.896662	9.569665	-0.445176	-2.359339	0.479820	-0.543289	1.116638	-0.210501				-0.008435	0.007260	0.023931	0.999999	-0.000679	0.001396	-0.000263	0.043391	-0.177624	0.033490	0.982571	3.086420	20.607416	175.504036	-0.933134	0.073373	-0.351963	-0.097167	-0.993991	0.050397	-0.346150	0.081226	0.934656
59218	30432049	-3.594304	2.997762	9.439615	-0.247205	-2.499585	0.432013	-0.591424	1.113111	-0.228836				-0.008951	0.007514	0.023606	0.999999	-0.000739	0.001391	-0.000286	0.043499	-0.179027	0.032771	0.982336	2.992314	20.767742	175.477558	-0.932114	0.073726	-0.354581	-0.097194	-0.994068	0.048810	-0.348879	0.079960	0.933751
59219	30432074	-3.989901	3.096547	9.518204	0.055427	-2.637417	0.646895	-0.673423	1.079837	-0.220488	-0.121143	-0.495430	-0.408737	-0.009940	0.007764	0.023802	0.999999	-0.000842	0.001350	-0.000276	0.043578	-0.180393	0.031953	0.982109	2.886639	20.923203	175.451753	-0.931118	0.074070	-0.357116	-0.097126	-0.994160	0.047039	-0.351547	0.078484	0.932875
59220	30432099	-4.279306	3.266847	9.644893	0.234648	-2.837433	0.872227	-0.755333	1.063042	-0.215426				-0.010664	0.008193	0.024119	0.999999	-0.000944	0.001329	-0.000269	0.043634	-0.181742	0.031033	0.981887	2.769274	21.076179	175.426263	-0.930132	0.074408	-0.359609	-0.096968	-0.994266	0.045082	-0.354192	0.076803	0.932013
59221	30432124	-4.544531	3.169976	9.794778	0.407939	-2.770136	1.099207	-0.808981	1.047251	-0.228472				-0.011327	0.007953	0.024494	0.999999	-0.001011	0.001309	-0.000286	0.043694	-0.183075	0.030044	0.981668	2.643262	21.226933	175.398282	-0.929149	0.074786	-0.362063	-0.096787	-0.994376	0.042988	-0.356812	0.074986	0.931162
59222	30432149	-4.872671	2.939078	9.719389	0.731967	-2.593096	1.135330	-0.870741	1.051356	-0.244355				-0.012147	0.007378	0.024306	0.999998	-0.001088	0.001314	-0.000305	0.043759	-0.184416	0.028976	0.981446	2.507315	21.378316	175.367492	-0.928152	0.075207	-0.364524	-0.096582	-0.994491	0.040737	-0.359453	0.073016	0.930302
59223	30432174	-5.402507	2.292218	10.239818	1.066049	-1.976695	1.786264	-0.908062	1.046776	-0.262714	-0.116117	-0.494103	-0.411757	-0.013471	0.005764	0.025611	0.999998	-0.001135	0.001308	-0.000328	0.043838	-0.185753	0.027857	0.981223	2.364746	21.529086	175.333422	-0.927148	0.075681	-0.366973	-0.096379	-0.994604	0.038382	-0.362089	0.070955	0.929439
59224	30432199	-6.587119	1.826917	11.471924	1.726056	-1.541473	3.351592	-0.835440	1.018060	-0.251947				-0.016430	0.004602	0.028696	0.999999	-0.001044	0.001273	-0.000315	0.043922	-0.187051	0.026829	0.981001	2.232887	21.675607	175.300408	-0.926166	0.076138	-0.369351	-0.096211	-0.994702	0.036206	-0.364638	0.069069	0.928584
59225	30432224	-7.097356	1.768573	12.710885	1.713936	-1.463168	4.690418	-0.812172	0.983190	-0.201155				-0.017703	0.004458	0.031794	0.999999	-0.001015	0.001229	-0.000251	0.043950	-0.188302	0.025838	0.980787	2.106964	21.816792	175.274630	-0.925221	0.076480	-0.371640	-0.095941	-0.994802	0.034132	-0.367098	0.067235	0.927749
59226	30432249	-7.378238	2.471841	13.488267	1.583036	-2.155059	5.540033	-0.746474	0.955780	-0.124009				-0.018404	0.006214	0.033737	0.999999	-0.000933	0.001195	-0.000155	0.043899	-0.189513	0.024945	0.980579	1.994646	21.953608	175.260261	-0.924315	0.076638	-0.373856	-0.095548	-0.994901	0.032282	-0.369476	0.065560	0.926925
59227	30432274	-8.619565	2.823641	14.888488	2.137228	-2.526383	7.316416	-0.622489	0.942797	-0.030626	-0.110131	-0.490864	-0.413287	-0.021505	0.007089	0.037241	0.999999	-0.000778	0.001178	-0.000038	0.043764	-0.190698	0.024225	0.980373	1.905336	22.088087	175.259964	-0.923438	0.076570	-0.376032	-0.095049	-0.994996	0.030808	-0.371791	0.064191	0.926095
59228	30432299	-10.313083	2.919989	17.109101	2.822603	-2.622924	10.017750	-0.477086	0.868395	0.028875				-0.025737	0.007325	0.042796	0.999999	-0.000596	0.001085	0.000036	0.043592	-0.191782	0.023694	0.980183	1.840104	22.211636	175.268298	-0.922639	0.076369	-0.378029	-0.094545	-0.995077	0.029728	-0.373897	0.063168	0.925316
59229	30432324	-10.780536	3.049222	17.848677	2.928997	-2.749868	10.886571	-0.391918	0.759284	0.090823				-0.026910	0.007642	0.044644	0.999999	-0.000490	0.000949	0.000114	0.043368	-0.192726	0.023275	0.980018	1.790467	22.319289	175.285554	-0.921952	0.076032	-0.379768	-0.093975	-0.995155	0.028904	-0.375730	0.062337	0.924630
59230	30432349	-10.473345	3.059431	18.420775	2.401581	-2.705945	11.301315	-0.303638	0.628278	0.151086				-0.026149	0.007661	0.046070	1.000000	-0.000380	0.000785	0.000189	0.043096	-0.193502	0.022972	0.979884	1.756786	22.407931	175.311439	-0.921400	0.075568	-0.381198	-0.093348	-0.995230	0.028342	-0.377238	0.061699	0.924059
59231	30432374	-9.957861	3.253009	18.464251	1.871209	-2.857549	11.151864	-0.220361	0.506552	0.205040	-0.107849	-0.490436	-0.414796	-0.024868	0.008139	0.046174	1.000000	-0.000275	0.000633	0.000256	0.042781	-0.194123	0.022778	0.979779	1.738027	22.478920	175.345077	-0.920972	0.074988	-0.382344	-0.092675	-0.995302	0.028025	-0.378446	0.061244	0.923595
59232	30432399	-9.353337	3.457522	18.181962	1.388346	-3.031824	10.666606	-0.173682	0.400908	0.267924				-0.023363	0.008646	0.045465	1.000000	-0.000217	0.000501	0.000335	0.042403	-0.194610	0.022650	0.979702	1.729528	22.534519	175.387962	-0.920658	0.074269	-0.383240	-0.091901	-0.995378	0.027877	-0.379398	0.060885	0.923228
59233	30432424	-8.902493	3.567045	17.569399	1.186142	-3.142247	9.932234	-0.148202	0.317130	0.315607				-0.022242	0.008917	0.043931	1.000000	-0.000185	0.000396	0.000395	0.041976	-0.194991	0.022561	0.979647	1.727402	22.577920	175.437858	-0.920433	0.073444	-0.383940	-0.091041	-0.995458	0.027834	-0.380151	0.060574	0.922939
59234	30432449	-8.583123	3.538912	16.577260	1.267271	-3.148746	8.893878	-0.156383	0.236377	0.364901				-0.021450	0.008846	0.041448	1.000000	-0.000195	0.000295	0.000456	0.041488	-0.195273	0.022470	0.979613	1.726932	22.609548	175.495033	-0.920294	0.072509	-0.384449	-0.090060	-0.995548	0.027820	-0.380720	0.060226	0.922727
59235	30432474	-8.232033	3.502806	15.537156	1.342149	-3.148874	7.798495	-0.186132	0.166006	0.404224	-0.105993	-0.491438	-0.415818	-0.020576	0.008756	0.038845	1.000000	-0.000233	0.000208	0.000505	0.040947	-0.195469	0.022348	0.979600	1.724448	22.630932	175.557977	-0.920230	0.071487	-0.384794	-0.088960	-0.995648	0.027776	-0.381133	0.059791	0.922585
59236	30432499	-7.868224	3.423037	14.373275	1.459593	-3.113663	6.582282	-0.231884	0.109120	0.430414				-0.019670	0.008557	0.035933	1.000000	-0.000290	0.000136	0.000538	0.040364	-0.195597	0.022173	0.979602	1.716892	22.644064	175.624736	-0.920225	0.070408	-0.385005	-0.087756	-0.995758	0.027651	-0.381425	0.059232	0.922500
59237	30432524	-7.455466	3.207817	13.387184	1.477371	-2.932312	5.506805	-0.311613	0.065832	0.444593				-0.018640	0.008022	0.033466	1.000000	-0.000390	0.000082	0.000556	0.039746	-0.195676	0.021902	0.979618	1.698696	22.650952	175.693497	-0.920262	0.069300	-0.385116	-0.086443	-0.995881	0.027357	-0.381634	0.058466	0.922463
59238	30432549	-7.055616	2.871039	12.503062	1.478445	-2.627659	4.526541	-0.413393	0.044139	0.449537				-0.017641	0.007184	0.031255	1.000000	-0.000517	0.000055	0.000562	0.039097	-0.195733	0.021507	0.979642	1.666185	22.654741	175.762924	-0.920320	0.068183	-0.385177	-0.085021	-0.996018	0.026833	-0.381814	0.057443	0.922452
59239	30432574	-6.739777	2.560412	11.654928	1.539682	-2.354314	3.612444	-0.510104	0.041591	0.440382	-0.107500	-0.490944	-0.418268	-0.016851	0.006410	0.029134	1.000000	-0.000638	0.000052	0.000550	0.038436	-0.195791	0.020991	0.979667	1.619274	22.658246	175.830920	-0.920377	0.067089	-0.385234	-0.083528	-0.996164	0.026077	-0.382006	0.056178	0.922451
59240	30432599	-6.547417	2.108545	11.044350	1.634000	-1.937159	2.961609	-0.611493	0.054903	0.417543				-0.016369	0.005284	0.027608	1.000000	-0.000764	0.000069	0.000522	0.037777	-0.195871	0.020345	0.979690	1.556500	22.663809	175.895427	-0.920415	0.066050	-0.385323	-0.081990	-0.996318	0.025065	-0.382249	0.054663	0.922441
59241	30432624	-6.438274	1.551412	10.612952	1.742932	-1.412081	2.506453	-0.705794	0.068355	0.392184				-0.016095	0.003894	0.026530	0.999999	-0.000882	0.000085	0.000490	0.037126	-0.195973	0.019579	0.979711	1.478729	22.671467	175.956050	-0.920433	0.065072	-0.385447	-0.080420	-0.996477	0.023812	-0.382539	0.052915	0.922423
59242	30432649	-6.365391	0.953946	10.310383	1.836364	-0.843007	2.184782	-0.779729	0.096358	0.367476				-0.015911	0.002403	0.025776	0.999999	-0.000975	0.000120	0.000459	0.036487	-0.196112	0.018717	0.979724	1.388937	22.683306	176.012940	-0.920417	0.064153	-0.385637	-0.078836	-0.996637	0.022364	-0.382905	0.050986	0.922379
59243	30432674	-6.246026	0.357225	10.172800	1.820928	-0.264455	1.999310	-0.848449	0.124364	0.343250	-0.109593	-0.489014	-0.423172	-0.015611	0.000913	0.025433	0.999999	-0.001061	0.000155	0.000429	0.035860	-0.196289	0.017767	0.979729	1.287897	22.699322	176.066145	-0.920369	0.063291	-0.385895	-0.077240	-0.996797	0.020735	-0.383347	0.048891	0.922310
59244	30432699	-6.232982	-0.241197	10.114951	1.870126	0.312044	1.930568	-0.889571	0.160581	0.308368				-0.015577	-0.000581	0.025291	0.999999	-0.001112	0.000201	0.000385	0.035264	-0.196513	0.016759	0.979723	1.178930	22.720724	176.114041	-0.920278	0.062512	-0.386240	-0.075685	-0.996951	0.018978	-0.383876	0.046698	0.922203
59245	30432724	-6.115508	-0.688922	10.275761	1.725318	0.753901	2.027838	-0.911983	0.191768	0.276597				-0.015282	-0.001698	0.025695	0.999999	-0.001140	0.000240	0.000346	0.034701	-0.196777	0.015717	0.979708	1.064886	22.746767	176.157062	-0.920149	0.061809	-0.386659	-0.074180	-0.997098	0.017139	-0.384477	0.044453	0.922064
59246	30432749	-5.473100	-1.230315	11.051484	0.867430	1.347133	2.488498	-0.859451	0.177093	0.227100				-0.013676	-0.003050	0.027635	0.999999	-0.001074	0.000221	0.000284	0.034212	-0.197021	0.014727	0.979691	0.955377	22.770910	176.192308	-0.920024	0.061232	-0.387047	-0.072838	-0.997225	0.015374	-0.385032	0.042336	0.921932
59247	30432774	-6.188709	-1.688479	9.703097	2.066550	1.685864	1.520931	-0.899421	0.253695	0.183342	-0.109832	-0.489049	-0.429601	-0.015463	-0.004197	0.024267	0.999999	-0.001124	0.000317	0.000229	0.033765	-0.197361	0.013680	0.979654	0.837581	22.806187	176.220899	-0.919817	0.060757	-0.387615	-0.071557	-0.997346	0.013475	-0.385767	0.040131	0.921723
59248	30432799	-6.206953	-2.187836	10.727028	1.709407	2.203546	2.470841	-0.853662	0.310463	0.153728				-0.015506	-0.005444	0.026829	0.999999	-0.001067	0.000388	0.000192	0.033365	-0.197769	0.012684	0.979599	0.724593	22.849705	176.244938	-0.919548	0.060352	-0.388315	-0.070386	-0.997452	0.011654	-0.386622	0.038048	0.921453
59249	30432824	-6.310259	-2.432931	11.115894	1.657358	2.436145	2.872292	-0.812102	0.316255	0.094980				-0.015764	-0.006056	0.027802	0.999999	-0.001015	0.000395	0.000119	0.033047	-0.198183	0.011725	0.979538	0.613996	22.894195	176.259772	-0.919263	0.060094	-0.389031	-0.069389	-0.997541	0.009872	-0.387481	0.036069	0.921172
59250	30432849	-6.365218	-2.676282	11.459520	1.576771	2.669087	3.213595	-0.732379	0.340746	0.044924				-0.015900	-0.006665	0.028662	0.999999	-0.000915	0.000426	0.000056	0.032810	-0.198624	0.010852	0.979466	0.511780	22.942288	176.266774	-0.918944	0.059961	-0.389804	-0.068583	-0.997612	0.008226	-0.388379	0.034293	0.920861
59251	30432874	-6.015678	-2.573459	12.343220	0.889922	2.598983	3.896024	-0.647010	0.355329	-0.001219	-0.109627	-0.487651	-0.436023	-0.015025	-0.006409	0.030870	1.000000	-0.000809	0.000444	-0.000002	0.032650	-0.199080	0.010073	0.979387	0.418970	22.992535	176.266515	-0.918602	0.059942	-0.390611	-0.067964	-0.997665	0.006731	-0.389296	0.032731	0.920531
59252	30432899	-5.886557	-2.756811	12.250841	0.806306	2.770329	3.763573	-0.556487	0.352445	-0.068095				-0.014703	-0.006869	0.030638	1.000000	-0.000696	0.000441	-0.000085	0.032594	-0.199530	0.009388	0.979305	0.335023	23.042431	176.255776	-0.918251	0.060092	-0.391413	-0.067585	-0.997699	0.005381	-0.390189	0.031395	0.920200
59253	30432924	-6.193497	-2.609145	12.257851	1.058488	2.588531	3.895372	-0.521673	0.416814	-0.101347				-0.015469	-0.006501	0.030657	1.000000	-0.000652	0.000521	-0.000127	0.032587	-0.200057	0.008740	0.979203	0.254012	23.101558	176.239829	-0.917831	0.060321	-0.392362	-0.067315	-0.997723	0.004078	-0.391223	0.030155	0.919802
59254	30432949	-6.280655	-2.392301	13.135136	0.763189	2.377667	4.740498	-0.448036	0.435032	-0.148919				-0.015685	-0.005959	0.032850	1.000000	-0.000560	0.000544	-0.000186	0.032656	-0.200604	0.008171	0.979094	0.180590	23.163300	176.216389	-0.917384	0.060669	-0.393353	-0.067225	-0.997734	0.002898	-0.392286	0.029102	0.919383
59255	30432974	-6.486805	-2.184753	13.575973	0.748760	2.155682	5.230351	-0.391729	0.423408	-0.202459	-0.109786	-0.484785	-0.438964	-0.016200	-0.005441	0.033951	1.000000	-0.000490	0.000529	-0.000253	0.032805	-0.201134	0.007656	0.978984	0.111885	23.223369	176.184506	-0.916938	0.061152	-0.394317	-0.067312	-0.997730	0.001795	-0.393312	0.028188	0.918973
59256	30432999	-6.497361	-1.945975	14.104789	0.518015	1.916654	5.723053	-0.342269	0.416966	-0.253910				-0.016227	-0.004845	0.035273	1.000000	-0.000428	0.000521	-0.000317	0.033030	-0.201655	0.007190	0.978873	0.047032	23.282492	176.144511	-0.916488	0.061765	-0.395265	-0.067564	-0.997715	0.000754	-0.394315	0.027397	0.918567
59257	30433024	-6.397222	-1.670698	14.439607	0.259045	1.642374	5.992806	-0.311980	0.413983	-0.301115				-0.015976	-0.004157	0.036109	1.000000	-0.000390	0.000517	-0.000376	0.033320	-0.202172	0.006748	0.978760	-0.016470	23.341149	176.097064	-0.916033	0.062496	-0.396205	-0.067953	-0.997689	-0.000264	-0.395306	0.026681	0.918162
59258	30433049	-6.309204	-1.407397	14.682616	0.048459	1.376524	6.182124	-0.287545	0.401810	-0.352816				-0.015756	-0.003498	0.036716	1.000000	-0.000359	0.000502	-0.000441	0.033679	-0.202673	0.006322	0.978647	-0.079751	23.398007	176.041459	-0.915579	0.063358	-0.397116	-0.068483	-0.997651	-0.001277	-0.396264	0.026026	0.917768
59259	30433074	-6.334354	-1.090737	15.014864	-0.098139	1.052179	6.497344	-0.268164	0.390820	-0.402051	-0.106686	-0.484874	-0.443951	-0.015819	-0.002706	0.037546	1.000000	-0.000335	0.000489	-0.000503	0.034104	-0.203160	0.005907	0.978534	-0.143396	23.453221	175.978062	-0.915126	0.064344	-0.398000	-0.069145	-0.997604	-0.002296	-0.397194	0.025418	0.917382
59260	30433099	-6.391373	-0.763312	15.409627	-0.240773	0.715445	6.881713	-0.258045	0.368543	-0.445266				-0.015962	-0.001887	0.038532	1.000000	-0.000323	0.000461	-0.000557	0.034584	-0.203619	0.005493	0.978424	-0.208369	23.505159	175.907851	-0.914686	0.065440	-0.398832	-0.069914	-0.997547	-0.003335	-0.398072	0.024833	0.917018
59261	30433124	-6.548941	-0.409794	15.820389	-0.300237	0.344823	7.319968	-0.259988	0.345422	-0.486189				-0.016356	-0.001002	0.039558	1.000000	-0.000325	0.000432	-0.000608	0.035114	-0.204051	0.005065	0.978317	-0.276259	23.553686	175.831170	-0.914261	0.066639	-0.399608	-0.070773	-0.997483	-0.004420	-0.398897	0.024241	0.916675
59262	30433149	-6.624066	0.033758	16.428336	-0.519856	-0.107680	7.904489	-0.273705	0.306007	-0.522423				-0.016544	0.000109	0.041077	1.000000	-0.000342	0.000383	-0.000653	0.035685	-0.204435	0.004609	0.978219	-0.348458	23.596453	175.748768	-0.913866	0.067932	-0.400292	-0.071701	-0.997411	-0.005573	-0.399634	0.023608	0.916371
59263	30433174	-6.236128	0.290284	17.347354	-1.269720	-0.333944	8.588546	-0.244634	0.212106	-0.563333	-0.103045	-0.485925	-0.447469	-0.015578	0.000750	0.043372	1.000000	-0.000306	0.000265	-0.000704	0.036314	-0.204702	0.004174	0.978141	-0.419095	23.625637	175.659989	-0.913556	0.069332	-0.400759	-0.072750	-0.997328	-0.006701	-0.400153	0.023033	0.916159
59264	30433199	-6.836828	0.855421	16.469487	-0.423100	-0.984869	8.019483	-0.337303	0.217532	-0.585504				-0.017079	0.002168	0.041177	1.000000	-0.000422	0.000272	-0.000732	0.036947	-0.204981	0.003620	0.978062	-0.504465	23.655462	175.567673	-0.913235	0.070788	-0.401236	-0.073756	-0.997244	-0.008065	-0.400701	0.022229	0.915939
59265	30433224	-6.974271	1.091441	17.683335	-0.812719	-1.229402	9.182160	-0.349197	0.184138	-0.609171				-0.017423	0.002761	0.044211	1.000000	-0.000436	0.000230	-0.000761	0.037605	-0.205219	0.003045	0.977989	-0.593073	23.680342	175.471637	-0.912942	0.072305	-0.401634	-0.074804	-0.997153	-0.009479	-0.401176	0.021390	0.915751
59266	30433249	-7.303299	1.475764	18.360182	-0.820515	-1.652617	9.927404	-0.395869	0.114235	-0.617589				-0.018249	0.003726	0.045901	1.000000	-0.000495	0.000143	-0.000772	0.038262	-0.205374	0.002406	0.977932	-0.688900	23.695055	175.374348	-0.912715	0.073847	-0.401869	-0.075823	-0.997060	-0.011010	-0.401500	0.020422	0.915631
59267	30433274	-7.443376	1.865870	18.933292	-0.956581	-2.073356	10.500336	-0.432250	0.031970	-0.625786	-0.098951	-0.486024	-0.450985	-0.018603	0.004705	0.047331	1.000000	-0.000540	0.000040	-0.000782	0.038920	-0.205430	0.001717	0.977896	-0.790413	23.697817	175.275907	-0.912567	0.075413	-0.401913	-0.076824	-0.996965	-0.012632	-0.401646	0.019349	0.915591
59268	30433299	-7.450565	1.996527	18.509368	-0.790815	-2.247238	10.109366	-0.473775	-0.033420	-0.641570				-0.018624	0.005034	0.046270	0.999999	-0.000592	-0.000042	-0.000802	0.039586	-0.205408	0.000971	0.977875	-0.898805	23.691015	175.175147	-0.912481	0.077022	-0.401804	-0.077819	-0.996864	-0.014364	-0.401651	0.018161	0.915613
59269	30433324	-7.541059	2.101840	18.396693	-0.671708	-2.398952	10.036407	-0.532265	-0.066367	-0.631267				-0.018852	0.005300	0.045987	0.999999	-0.000665	-0.000083	-0.000789	0.040225	-0.205349	0.000153	0.977862	-1.014869	23.679339	175.076106	-0.912428	0.078606	-0.401618	-0.078732	-0.996764	-0.016221	-0.401593	0.016820	0.915664
59270	30433349	-7.296368	1.940536	18.039867	-0.734998	-2.263711	9.609800	-0.585514	-0.136353	-0.618246				-0.018245	0.004898	0.045093	0.999999	-0.000732	-0.000170	-0.000773	0.040834	-0.205206	-0.000729	0.977866	-1.137618	23.657485	174.979346	-0.912446	0.080160	-0.401268	-0.079561	-0.996664	-0.018185	-0.401387	0.015332	0.915780
59271	30433374	-6.991207	1.927273	17.183317	-0.662796	-2.277024	8.698679	-0.618276	-0.196885	-0.624970	-0.096753	-0.486089	-0.454971	-0.017485	0.004865	0.042950	0.999999	-0.000773	-0.000246	-0.000781	0.041443	-0.204990	-0.001657	0.977885	-1.265332	23.626749	174.881806	-0.912523	0.081733	-0.400777	-0.080374	-0.996559	-0.020231	-0.401051	0.013750	0.915952
59272	30433399	-6.557932	1.926049	16.365576	-0.723161	-2.288561	7.771476	-0.643563	-0.236574	-0.628133				-0.016403	0.004861	0.040905	0.999999	-0.000804	-0.000296	-0.000785	0.042049	-0.204728	-0.002618	0.977912	-1.396716	23.590117	174.784016	-0.912637	0.083313	-0.400191	-0.081169	-0.996450	-0.022338	-0.400631	0.012097	0.916159
59273	30433424	-6.040434	1.747972	15.400859	-0.787732	-2.116106	6.680308	-0.688394	-0.258310	-0.633532				-0.015110	0.004415	0.038493	0.999999	-0.000860	-0.000323	-0.000792	0.042651	-0.204440	-0.003637	0.977943	-1.534715	23.550142	174.685593	-0.912770	0.084907	-0.399551	-0.081933	-0.996335	-0.024552	-0.400172	0.010326	0.916382
59274	30433449	-5.758883	1.643710	14.558747	-0.693832	-2.033180	5.794242	-0.729867	-0.250007	-0.640699				-0.014405	0.004154	0.036389	0.999999	-0.000912	-0.000313	-0.000801	0.043250	-0.204165	-0.004707	0.977969	-1.678999	23.511105	174.586151	-0.912892	0.086516	-0.398927	-0.082672	-0.996215	-0.026867	-0.399741	0.008453	0.916589
59275	30433474	-5.397132	1.506817	13.635367	-0.639695	-1.907735	4.803013	-0.756878	-0.233203	-0.657165	-0.094166	-0.485695	-0.460936	-0.013500	0.003810	0.034081	0.999999	-0.000946	-0.000292	-0.000821	0.043863	-0.203911	-0.005814	0.977989	-1.828093	23.474168	174.484190	-0.912993	0.088165	-0.398336	-0.083423	-0.996085	-0.029261	-0.399356	0.006516	0.916773
59276	30433499	-4.411963	1.439147	13.674497	-1.544177	-1.784885	4.445317	-0.724127	-0.239466	-0.684707				-0.011037	0.003638	0.034180	0.999999	-0.000905	-0.000299	-0.000856	0.044517	-0.203647	-0.006889	0.978007	-1.974079	23.435963	174.378103	-0.913092	0.089882	-0.397724	-0.084270	-0.995942	-0.031606	-0.398950	0.004658	0.916961
59277	30433154																																			
59278	30433524	-5.090658	1.559205	11.116234	0.085196	-2.007624	2.359789	-0.787173	-0.159662	-0.716414				-0.012729	0.003937	0.027784	0.999999	-0.000984	-0.000200	-0.000896	0.045195	-0.203484	-0.008043	0.978002	-2.131130	23.408763	174.266759	-0.913103	0.091675	-0.397288	-0.085128	-0.995785	-0.034126	-0.398742	0.002660	0.917059
59279	30433154																																			
59280	30433549	-5.342593	1.242059	12.002455	-0.013897	-1.746593	3.279454	-0.783672	-0.069535	-0.720848				-0.013356	0.003147	0.030002	0.999999	-0.000980	-0.000087	-0.000901	0.045880	-0.203430	-0.009190	0.977971	-2.288093	23.394158	174.154282	-0.913022	0.093478	-0.397054	-0.085999	-0.995621	-0.036642	-0.398741	0.000691	0.917063
59281	30433574	-5.235944	1.101254	11.730651	0.003027	-1.629212	2.982411	-0.813936	-0.042541	-0.734098	-0.090724	-0.484848	-0.468888	-0.013089	0.002795	0.029323	0.999999	-0.001017	-0.000053	-0.000918	0.047569	-0.203427	-0.010167	0.977881	-2.450067	23.383793	173.923014	-0.912709	0.097170	-0.396888	-0.088897	-0.995268	-0.039238	-0.398823	-0.000530	0.917028
59282	30433599	-5.322683	1.178467	11.716217	0.076238	-1.748405	2.995907	-0.823963	0.005865	-0.744204				-0.013304	0.002989	0.029288	0.999999	-0.001030	0.000007	-0.000930	0.048273	-0.203468	-0.011364	0.977825	-2.614374	23.379249	173.806484	-0.912541	0.099029	-0.396815	-0.089780	-0.995081	-0.041869	-0.399010	-0.002581	0.916943
59283	30433624	-5.100343	1.160569	12.084702	-0.279036	-1.744310	3.241597	-0.839687	0.060657	-0.751768				-0.012746	0.002945	0.030210	0.999999	-0.001050	0.000076	-0.000940	0.048983	-0.203577	-0.012580	0.977752	-2.781552	23.382184	173.688387	-0.912315	0.100908	-0.396862	-0.090664	-0.994885	-0.044543	-0.399327	-0.004656	0.916797
59284	30433649	-4.763911	1.165465	12.561209	-0.784690	-1.752307	3.539700	-0.827295	0.093231	-0.790280				-0.011903	0.002958	0.031401	0.999999	-0.001034	0.000117	-0.000988	0.049743	-0.203723	-0.013788	0.977667	-2.949454	23.389186	173.564020	-0.912045	0.102882	-0.396975	-0.091647	-0.994671	-0.047227	-0.399718	-0.006692	0.916614
59285	30433674	-5.216263	1.263642	12.168784	-0.236109	-1.930046	3.349475	-0.860705	0.174733	-0.806274	-0.086421	-0.481622	-0.477818	-0.013031	0.003205	0.030421	0.999999	-0.001076	0.000218	-0.001008	0.050516	-0.203970	-0.015035	0.977557	-3.123438	23.407385	173.436439	-0.911688	0.104898	-0.397266	-0.092631	-0.994444	-0.050003	-0.400304	-0.008788	0.916340
59286	30433699	-5.601629	1.224242	13.143446	-0.286010	-1.979913	4.392009	-0.866054	0.240646	-0.813537				-0.013991	0.003110	0.032859	0.999999	-0.001083	0.000301	-0.001017	0.051298	-0.204298	-0.016287	0.977428	-3.298946	23.434594	173.307082	-0.911262	0.106934	-0.397702	-0.093625	-0.994207	-0.052799	-0.401044	-0.010879	0.915994
59287	30433724	-5.990182	1.441759	13.840959	-0.247620	-2.288819	5.166960	-0.903620	0.255200	-0.805380				-0.014961	0.003659	0.034603	0.999999	-0.001130	0.000319	-0.001007	0.052060	-0.204645	-0.017582	0.977293	-3.479487	23.463585	173.178742	-0.910820	0.108951	-0.398166	-0.094559	-0.993961	-0.055673	-0.401827	-0.013058	0.915622
59288	30433749	-6.158875	1.603196	14.111311	-0.234575	-2.514883	5.465130	-0.918892	0.275627	-0.798755				-0.015381	0.004064	0.035279	0.999999	-0.001149	0.000345	-0.000998	0.052810	-0.205018	-0.018892	0.977150	-3.661998	23.495182	173.051108	-0.910357	0.110954	-0.398672	-0.095461	-0.993708	-0.058575	-0.402663	-0.015267	0.915221
59289	30433774	-5.971687	1.875966	14.386338	-0.560145	-2.812230	5.617411	-0.911995	0.300266	-0.806870	-0.083431	-0.481727	-0.485773	-0.014911	0.004746	0.035966	0.999999	-0.001140	0.000375	-0.001009	0.053573	-0.205420	-0.020195	0.976998	-3.844250	23.529852	172.921816	-0.909865	0.112978	-0.399227	-0.096384	-0.993444	-0.061470	-0.403554	-0.017450	0.914789
59290	30433799	-5.882463	2.029164	14.593098	-0.758664	-3.002355	5.751820	-0.935640	0.322524	-0.803550				-0.014686	0.005130	0.036483	0.999999	-0.001170	0.000403	-0.001004	0.054326	-0.205851	-0.021523	0.976837	-4.029914	23.567354	172.792646	-0.909348	0.114996	-0.399827	-0.097274	-0.993171	-0.064416	-0.404504	-0.019684	0.914324
59291	30433824	-5.575357	2.176996	14.850406	-1.176289	-3.162504	5.844175	-0.939767	0.338441	-0.791021				-0.013917	0.005500	0.037125	0.999999	-0.001175	0.000423	-0.000989	0.055063	-0.206301	-0.022853	0.976671	-4.215607	23.606876	172.665081	-0.908816	0.116985	-0.400459	-0.098127	-0.992892	-0.067358	-0.405492	-0.021920	0.913836
59292	30433849	-5.304217	2.035561	14.169198	-1.150588	-3.016464	5.113046	-0.944406	0.334007	-0.801087				-0.013241	0.005144	0.035422	0.999999	-0.001181	0.000418	-0.001001	0.055810	-0.206745	-0.024191	0.976502	-4.402724	23.645275	172.535820	-0.908284	0.119000	-0.401073	-0.098995	-0.992600	-0.070322	-0.406473	-0.024168	0.913343
59293	30433874	-5.538277	2.136124	13.682560	-0.772365	-3.174639	4.745096	-0.993976	0.409134	-0.768546	-0.078554	-0.481385	-0.493252	-0.013823	0.005396	0.034207	0.999999	-0.001242	0.000511	-0.000961	0.056508	-0.207284	-0.025576	0.976312	-4.595437	23.694375	172.410522	-0.907680	0.120941	-0.401858	-0.099735	-0.992306	-0.073366	-0.407639	-0.026513	0.912758
59294	30433899	-5.393382	1.944179	14.083676	-1.069981	-3.020622	5.056970	-1.007033	0.424017	-0.742211				-0.013460	0.004917	0.035210	0.999999	-0.001259	0.000530	-0.000928	0.057170	-0.207843	-0.026968	0.976118	-4.788637	23.745521	172.288920	-0.907066	0.122819	-0.402675	-0.100398	-0.992009	-0.076413	-0.408842	-0.028884	0.912148
59295	30433924	-5.370309	2.079382	13.687785	-0.964425	-3.181688	4.665581	-1.008612	0.439850	-0.737162				-0.013402	0.005254	0.034220	0.999999	-0.001261	0.000550	-0.000921	0.057825	-0.208421	-0.028360	0.975916	-4.982028	23.798613	172.167658	-0.906434	0.124687	-0.403523	-0.101044	-0.991704	-0.079459	-0.410083	-0.031251	0.911513
59296	30433949	-5.034006	2.033963	13.659872	-1.275927	-3.133250	4.497308	-0.990488	0.467886	-0.725790				-0.012560	0.005139	0.034151	0.999999	-0.001238	0.000585	-0.000907	0.058473	-0.209032	-0.029725	0.975706	-5.172468	23.855478	172.047536	-0.905773	0.126532	-0.404431	-0.101678	-0.991395	-0.082452	-0.411384	-0.033561	0.910844
59297	30433974	-4.743031	2.001269	13.544219	-1.512055	-3.099184	4.265852	-1.000585	0.496446	-0.715520	-0.073650	-0.481520	-0.500241	-0.011832	0.005056	0.033862	0.999999	-0.001251	0.000621	-0.000894	0.059106	-0.209678	-0.031098	0.975487	-5.364091	23.916184	171.928345	-0.905083	0.128356	-0.405400	-0.102273	-0.991079	-0.085458	-0.412752	-0.035885	0.910136
59298	30433999	-4.536154	1.946483	13.485625	-1.693430	-3.054503	4.122038	-1.000585	0.526394	-0.699650				-0.011314	0.004918	0.033715	0.999999	-0.001251	0.000658	-0.000875	0.059721	-0.210360	-0.032464	0.975258	-5.555123	23.981013	171.810903	-0.904364	0.130145	-0.406434	-0.102829	-0.990759	-0.088447	-0.414189	-0.038196	0.909389
59299	30434024	-4.432899	2.068573	13.592469	-1.868515	-3.204289	4.154152	-0.999016	0.546760	-0.685592				-0.011055	0.005223	0.033982	0.999999	-0.001249	0.000683	-0.000857	0.060320	-0.211068	-0.033823	0.975022	-5.745410	24.048585	171.695045	-0.903624	0.131904	-0.407511	-0.103349	-0.990435	-0.091419	-0.415672	-0.040493	0.908613
59300	30434049	-4.404365	2.098143	13.781545	-2.001964	-3.275324	4.299141	-0.989090	0.570944	-0.665191				-0.010982	0.005297	0.034455	0.999999	-0.001236	0.000714	-0.000831	0.060897	-0.211804	-0.035162	0.974779	-5.933385	24.119551	171.581679	-0.902861	0.133618	-0.408642	-0.103828	-0.990110	-0.094347	-0.417207	-0.042754	0.907805
59301	30434074	-4.400969	2.142294	14.134161	-2.183486	-3.371956	4.600750	-0.982961	0.579441	-0.640352	-0.068378	-0.481198	-0.509704	-0.010973	0.005408	0.035337	0.999999	-0.001229	0.000724	-0.000800	0.061446	-0.212551	-0.036487	0.974533	-6.119212	24.191763	171.471724	-0.902093	0.135274	-0.409792	-0.104253	-0.989786	-0.097236	-0.418760	-0.044994	0.906982
59302	30434099	-3.899618	2.405893	15.142054	-3.111933	-3.647829	5.268522	-0.936045	0.561020	-0.618410				-0.009718	0.006067	0.037855	0.999999	-0.001170	0.000701	-0.000773	0.061980	-0.213272	-0.037750	0.974294	-6.297037	24.261373	171.365206	-0.901347	0.136876	-0.410900	-0.104672	-0.989467	-0.099996	-0.420259	-0.047121	0.906180
59303	30434124	-3.901884	2.231727	13.956430	-2.616196	-3.453366	4.200287	-0.922540	0.541044	-0.624572				-0.009727	0.005627	0.034891	0.999999	-0.001153	0.000676	-0.000781	0.062524	-0.213967	-0.038999	0.974057	-6.473415	24.327741	171.257783	-0.900618	0.138493	-0.411956	-0.105115	-0.989140	-0.102731	-0.421709	-0.049219	0.905394
59304	30434149	-4.269781	2.275399	14.668075	-2.618624	-3.619670	4.977734	-0.928076	0.601843	-0.581251				-0.010643	0.005739	0.036672	0.999999	-0.001160	0.000752	-0.000727	0.063016	-0.214738	-0.040239	0.973806	-6.648483	24.403169	171.155752	-0.899833	0.140013	-0.413155	-0.105450	-0.988819	-0.105434	-0.423298	-0.051306	0.904537
59305	30434174	-4.549186	2.336509	15.180347	-2.617930	-3.783230	5.536380	-0.922882	0.578822	-0.543641	-0.063079	-0.481353	-0.518677	-0.011342	0.005893	0.037952	0.999999	-0.001154	0.000724	-0.000680	0.063463	-0.215482	-0.041464	0.973561	-6.820447	24.475672	171.059712	-0.899080	0.141440	-0.414307	-0.105701	-0.988506	-0.108086	-0.424833	-0.053386	0.903696
59306	30434199	-4.673170	2.275018	15.044248	-2.466647	-3.770140	5.458451	-0.936106	0.544021	-0.498609				-0.011654	0.005739	0.037612	0.999999	-0.001170	0.000680	-0.000623	0.063849	-0.216187	-0.042696	0.973326	-6.991342	24.543740	170.971076	-0.898373	0.142753	-0.415388	-0.105832	-0.988201	-0.110721	-0.426292	-0.055508	0.902881
59307	30434224	-4.042910	2.346890	14.923754	-3.011925	-3.778890	5.066016	-0.914575	0.516473	-0.479551				-0.010080	0.005916	0.037309	0.999999	-0.001143	0.000646	-0.000599	0.064217	-0.216856	-0.043899	0.973099	-7.157895	24.607990	170.885688	-0.897699	0.144018	-0.416408	-0.105939	-0.987898	-0.113287	-0.427684	-0.057584	0.902092
59308	30434249	-3.565418	2.325851	14.604829	-3.323212	-3.704459	4.568041	-0.918803	0.497031	-0.453994				-0.008888	0.005862	0.036511	0.999999	-0.001149	0.000621	-0.000567	0.064551	-0.217504	-0.045101	0.972878	-7.323416	24.669714	170.804433	-0.897051	0.145219	-0.417387	-0.105981	-0.987598	-0.115836	-0.429032	-0.059676	0.901316
